"Time (s)","Gyroscope x (rad/s)","Gyroscope y (rad/s)","Gyroscope z (rad/s)","Absolute (rad/s)"
2.163875800E-2,4.249070287E-1,-7.575356364E-1,-3.275685757E-2,8.691830850E-1
2.414443500E-2,4.238417745E-1,-7.564703226E-1,-4.340949282E-2,8.682013492E-1
2.665099800E-2,4.195807278E-1,-7.532745600E-1,-5.299686641E-2,8.638745382E-1
2.915849800E-2,4.110586047E-1,-7.490134835E-1,-6.578002870E-2,8.569232096E-1
3.166693500E-2,4.004059732E-1,-7.415566444E-1,-7.643266767E-2,8.462110570E-1
3.417631000E-2,3.876228034E-1,-7.309040427E-1,-9.028109163E-2,8.322396487E-1
3.668651800E-2,3.716438413E-1,-7.213166356E-1,-1.041295230E-1,8.180829977E-1
3.919745600E-2,3.545996249E-1,-7.064029574E-1,-1.169126853E-1,7.990085157E-1
4.170901800E-2,3.354249001E-1,-6.861629486E-1,-1.286305785E-1,7.745161595E-1
4.422110200E-2,3.151848912E-1,-6.680534482E-1,-1.403484792E-1,7.518873725E-1
4.673355000E-2,2.949448824E-1,-6.456829309E-1,-1.488705873E-1,7.253008912E-1
4.924615400E-2,2.715090811E-1,-6.211818457E-1,-1.563274413E-1,6.957171375E-1
5.175875800E-2,2.470080107E-1,-5.956155062E-1,-1.648495495E-1,6.655420066E-1
5.426839300E-2,2.225069404E-1,-5.625923872E-1,-1.691105962E-1,6.281862195E-1
5.677709100E-2,1.980058849E-1,-5.306344628E-1,-1.712411344E-1,5.916948451E-1
5.928578900E-2,1.735048145E-1,-4.976112843E-1,-1.744369268E-1,5.551118377E-1
6.179443500E-2,1.490037590E-1,-4.613923132E-1,-1.723063886E-1,5.145624146E-1
6.430308100E-2,1.245026886E-1,-4.241080880E-1,-1.701758653E-1,4.736332072E-1
6.681172700E-2,1.010668874E-1,-3.825628161E-1,-1.680453420E-1,4.298930809E-1
6.932037300E-2,7.976161689E-2,-3.410175145E-1,-1.659148186E-1,3.875339827E-1
7.182901800E-2,5.845634267E-2,-2.984069884E-1,-1.627190262E-1,3.448787558E-1
7.433766400E-2,3.715106845E-2,-2.526006401E-1,-1.584579647E-1,3.004932808E-1
7.684631000E-2,1.797632314E-2,-2.067943066E-1,-1.552621722E-1,2.592168505E-1
7.935495600E-2,-1.331579551E-4,-1.599227041E-1,-1.520663798E-1,2.206795706E-1
8.186360200E-2,-1.717737690E-2,-1.109205782E-1,-1.488705873E-1,1.864427224E-1
8.437224800E-2,-3.209106624E-2,-6.191844866E-2,-1.467400640E-1,1.624696193E-1
8.688089300E-2,-4.700475931E-2,-1.185105834E-2,-1.435442716E-1,1.515085901E-1
8.938953900E-2,-5.872265995E-2,3.715106845E-2,-1.403484792E-1,1.566085830E-1
9.189818500E-2,-6.937529147E-2,8.508793265E-2,-1.360874325E-1,1.748504408E-1
9.440683100E-2,-8.002793044E-2,1.319595277E-1,-1.328916401E-1,2.036614215E-1
9.691547700E-2,-8.855003864E-2,1.820269227E-1,-1.307611167E-1,2.409841895E-1
9.942412300E-2,-9.387636185E-2,2.288985252E-1,-1.275653243E-1,2.783526866E-1
1.019327680E-1,-9.920267761E-2,2.757701278E-1,-1.243695319E-1,3.183678927E-1
1.044414140E-1,-1.013332009E-1,3.205111921E-1,-1.211737394E-1,3.573218675E-1
1.069500600E-1,-1.023984700E-1,3.620564938E-1,-1.169126853E-1,3.940037149E-1
1.094587060E-1,-1.034637317E-1,4.036017656E-1,-1.137168929E-1,4.318919549E-1
1.119673520E-1,-1.034637317E-1,4.440817833E-1,-1.105211005E-1,4.691783112E-1
1.144759980E-1,-1.002679393E-1,4.813660085E-1,-1.051947847E-1,5.028248567E-1
1.169846430E-1,-9.600688517E-2,5.154544711E-1,-1.009337306E-1,5.339459259E-1
1.194932890E-1,-9.174583107E-2,5.495429039E-1,-9.880319983E-2,5.658416501E-1
1.220019350E-1,-8.641951531E-2,5.804355145E-1,-9.560741484E-2,5.945708510E-1
1.245105810E-1,-7.896266878E-2,6.070671082E-1,-9.134636074E-2,6.189585887E-1
1.270192790E-1,-7.150582224E-2,6.326334476E-1,-8.921582997E-2,6.428822801E-1
1.295279770E-1,-6.298371404E-2,6.550039649E-1,-8.602003753E-2,6.636238310E-1
1.320366750E-1,-5.446160212E-2,6.741787195E-1,-8.388951421E-2,6.815573802E-1
1.345453730E-1,-4.487423226E-2,6.890923977E-1,-8.175898343E-2,6.953751223E-1
1.370540700E-1,-3.635212034E-2,7.040061355E-1,-8.282424510E-2,7.097929071E-1
1.395627680E-1,-2.783001214E-2,7.146587372E-1,-8.175898343E-2,7.198584247E-1
1.420714660E-1,-2.037316747E-2,7.221155763E-1,-8.388951421E-2,7.272574661E-1
1.445801640E-1,-1.504684892E-2,7.274419069E-1,-8.495477587E-2,7.325404081E-1
1.470888620E-1,-9.720530361E-3,7.295724154E-1,-8.815056831E-2,7.349428009E-1
1.495975600E-1,-5.459476262E-3,7.306377292E-1,-9.241162241E-2,7.364789237E-1
1.521062580E-1,-2.263685223E-3,7.295724154E-1,-9.560741484E-2,7.358137069E-1
1.546149560E-1,-2.263685223E-3,7.242461443E-1,-9.880319983E-2,7.309580522E-1
1.571236540E-1,-4.394212738E-3,7.178545594E-1,-1.019989923E-1,7.250781144E-1
1.596323520E-1,-8.655266836E-3,7.103977203E-1,-1.073253155E-1,7.185113486E-1
1.621410500E-1,-1.611211337E-2,6.997450590E-1,-1.147821546E-1,7.092796986E-1
1.646497480E-1,-2.569948509E-2,6.880271435E-1,-1.222390011E-1,6.992740429E-1
1.671584450E-1,-3.848264739E-2,6.741787195E-1,-1.286305785E-1,6.874181302E-1
1.696671430E-1,-5.446160212E-2,6.581997871E-1,-1.350221634E-1,6.741097911E-1
1.721758410E-1,-7.363634557E-2,6.411555409E-1,-1.414137483E-1,6.606819108E-1
1.746845390E-1,-9.707214683E-2,6.219807863E-1,-1.467400640E-1,6.463866851E-1
1.771932370E-1,-1.226384789E-1,5.974797606E-1,-1.510011256E-1,6.283499032E-1
1.797019350E-1,-1.503353268E-1,5.719134212E-1,-1.563274413E-1,6.116567180E-1
1.822106330E-1,-1.801627129E-1,5.463470817E-1,-1.616537571E-1,5.975664599E-1
1.847193310E-1,-2.121206224E-1,5.165197253E-1,-1.659148186E-1,5.825079503E-1
1.872280290E-1,-2.472743243E-1,4.856270552E-1,-1.701758653E-1,5.709098469E-1
1.897367270E-1,-2.813627720E-1,4.547344148E-1,-1.744369268E-1,5.624736784E-1
1.922454250E-1,-3.175817132E-1,4.206459820E-1,-1.786979735E-1,5.565376470E-1
1.947541230E-1,-3.569964767E-1,3.865575492E-1,-1.797632426E-1,5.560468025E-1
1.972628200E-1,-3.942807019E-1,3.492733240E-1,-1.829590350E-1,5.576048200E-1
1.997715180E-1,-4.294344187E-1,3.098585606E-1,-1.840242893E-1,5.606167912E-1
2.022802160E-1,-4.635228515E-1,2.704437971E-1,-1.818937659E-1,5.666380002E-1
2.047889140E-1,-4.933502376E-1,2.288985252E-1,-1.808284968E-1,5.731386718E-1
2.072976120E-1,-5.199818015E-1,1.841574460E-1,-1.765674502E-1,5.791986734E-1
2.098063100E-1,-5.380913019E-1,1.383511126E-1,-1.712411344E-1,5.813835272E-1
2.123150080E-1,-5.466133952E-1,9.254477918E-2,-1.637842804E-1,5.780796057E-1
2.148237060E-1,-5.434176326E-1,4.567318037E-2,-1.531316489E-1,5.664256921E-1
2.173324040E-1,-5.306344628E-1,-3.328948980E-3,-1.392832249E-1,5.486199338E-1
2.198411020E-1,-5.029376149E-1,-5.446160212E-2,-1.211737394E-1,5.201878370E-1
2.223498000E-1,-4.624575675E-1,-1.130511016E-1,-1.019989923E-1,4.868791921E-1
2.248584980E-1,-4.070638716E-1,-1.918806136E-1,-8.175898343E-2,4.573879063E-1
2.273671950E-1,-3.378217220E-1,-2.866890728E-1,-6.151897460E-2,4.473239593E-1
2.298758930E-1,-2.547311783E-1,-3.985417485E-1,-4.021370411E-2,4.747005798E-1
2.323845910E-1,-1.599227041E-1,-5.178512931E-1,-1.677790284E-2,5.422423177E-1
2.348932890E-1,-5.552686751E-2,-6.446176767E-1,3.462106921E-3,6.470140403E-1
2.374019870E-1,5.632581562E-2,-7.681882381E-1,2.370211668E-2,7.706150512E-1
2.399106850E-1,1.681784987E-1,-8.843019605E-1,4.181159660E-2,9.011227299E-1
2.424193830E-1,2.768353820E-1,-9.801757336E-1,5.992107838E-2,1.020280762E0
2.449280810E-1,3.780354261E-1,-1.047287345E0,7.376950979E-2,1.115868947E0
2.474367790E-1,4.696480930E-1,-1.082440972E0,8.548741043E-2,1.183028270E0
2.499454770E-1,5.442165732E-1,-1.081375718E0,9.614004195E-2,1.214408510E0
2.524541750E-1,6.028060913E-1,-1.050483108E0,1.035968885E-1,1.215574867E0
2.549628730E-1,6.454166174E-1,-9.918935895E-1,1.078579426E-1,1.188296612E0
2.574715700E-1,6.688523889E-1,-9.056072235E-1,1.110537350E-1,1.131291692E0
2.599802680E-1,6.741787195E-1,-8.001461625E-1,1.110537350E-1,1.052180478E0
2.624889660E-1,6.645913720E-1,-6.755102873E-1,1.067926809E-1,9.536249350E-1
2.649976640E-1,6.379597783E-1,-5.359607935E-1,1.014663652E-1,8.393700460E-1
2.675063620E-1,5.996102691E-1,-3.814975321E-1,9.507478029E-2,7.170160777E-1
2.700150600E-1,5.495429039E-1,-2.163816839E-1,8.655267209E-2,5.969169133E-1
2.725237580E-1,4.898881316E-1,-4.700475931E-2,7.483477145E-2,4.977952108E-1
2.750324560E-1,4.238417745E-1,1.202416345E-1,6.205160543E-2,4.449160620E-1
2.775411540E-1,3.535343707E-1,2.683132887E-1,4.607265070E-2,4.462076437E-1
2.800498520E-1,2.779006660E-1,3.993407190E-1,2.583264373E-2,4.872054141E-1
2.825585500E-1,2.043974549E-1,5.165197253E-1,6.657897960E-3,5.555315237E-1
2.850672480E-1,1.308942735E-1,6.219807863E-1,-1.358211134E-2,6.357498589E-1
2.875759450E-1,5.952160433E-2,7.135934830E-1,-3.382211924E-2,7.168698739E-1
2.900846430E-1,-7.590003312E-3,7.892271876E-1,-5.086633936E-2,7.909010977E-1
2.925933410E-1,-7.150582224E-2,8.478167057E-1,-6.578002870E-2,8.533658426E-1
2.951020390E-1,-1.290300637E-1,8.882967234E-1,-7.749792933E-2,9.009582427E-1
2.976107370E-1,-1.790974438E-1,9.149283171E-1,-8.815056831E-2,9.364508756E-1
3.001194350E-1,-2.270343155E-1,9.277114868E-1,-9.454214573E-2,9.597559067E-1
3.026281330E-1,-2.664490640E-1,9.266462326E-1,-1.009337306E-1,9.694616868E-1
3.051368310E-1,-3.005374968E-1,9.159935713E-1,-1.051947847E-1,9.697592239E-1
3.076455290E-1,-3.282343447E-1,8.978840709E-1,-1.073253155E-1,9.620043207E-1
3.101542270E-1,-3.484743834E-1,8.755135536E-1,-1.073253155E-1,9.484076664E-1
3.126629250E-1,-3.623228073E-1,8.499472141E-1,-1.051947847E-1,9.299215162E-1
3.151716230E-1,-3.708449006E-1,8.211851120E-1,-9.880319983E-2,9.064397392E-1
3.176803200E-1,-3.719101548E-1,7.881619334E-1,-9.134636074E-2,8.762765284E-1
3.201890180E-1,-3.676491082E-1,7.530082464E-1,-8.175898343E-2,8.419452579E-1
3.226977160E-1,-3.580617309E-1,7.157239914E-1,-7.110634446E-2,8.034457960E-1
3.252064140E-1,-3.431480527E-1,6.763092279E-1,-6.151897460E-2,7.608740645E-1
3.277151120E-1,-3.239732981E-1,6.368945241E-1,-4.980107397E-2,7.162914767E-1
3.302238100E-1,-3.026680350E-1,5.964145064E-1,-4.021370411E-2,6.700263763E-1
3.327325080E-1,-2.760364413E-1,5.548691750E-1,-2.849580161E-2,6.203933663E-1
3.352412060E-1,-2.451438010E-1,5.133239031E-1,-1.784316637E-2,5.691355649E-1
3.377499040E-1,-2.110553533E-1,4.728438854E-1,-6.125265732E-3,5.178447847E-1
3.402586020E-1,-1.759016514E-1,4.344944060E-1,4.527370445E-3,4.687720948E-1
3.427673000E-1,-1.396826953E-1,3.961449265E-1,1.624527015E-2,4.203640886E-1
3.452759980E-1,-1.034637317E-1,3.599259555E-1,2.689790726E-2,3.754662896E-1
3.477846950E-1,-6.511423737E-2,3.237069845E-1,3.648528084E-2,3.322006193E-1
3.502933930E-1,-2.783001214E-2,2.906838059E-1,4.607265070E-2,2.956252252E-1
3.528020910E-1,7.323687430E-3,2.608564198E-1,5.459476262E-2,2.666088826E-1
3.553107890E-1,3.928159550E-2,2.320943177E-1,6.098634377E-2,2.431669183E-1
3.578194870E-1,7.123950869E-2,2.075932473E-1,6.844318658E-2,2.299010520E-1
3.603281850E-1,1.000016257E-1,1.862879843E-1,7.376950979E-2,2.239318620E-1
3.628368830E-1,1.234374270E-1,1.671132296E-1,7.590003312E-2,2.211887089E-1
3.653455810E-1,1.415469050E-1,1.511342824E-1,7.803056389E-2,2.212823231E-1
3.678542790E-1,1.564605981E-1,1.362205893E-1,7.696529478E-2,2.212682180E-1
3.703629770E-1,1.639174372E-1,1.223721579E-1,7.376950979E-2,2.174530106E-1
3.728716750E-1,1.660479754E-1,1.042626798E-1,6.844318658E-2,2.076706680E-1
3.753803730E-1,1.628521830E-1,8.402267098E-2,5.992107838E-2,1.927982842E-1
3.778890700E-1,1.553953290E-1,5.952160433E-2,4.820318148E-2,1.732457109E-1
3.803977680E-1,1.415469050E-1,3.182475269E-2,3.542001545E-2,1.493416175E-1
3.829064660E-1,1.223721579E-1,-1.331579551E-4,2.263685316E-2,1.244483422E-1
3.854151640E-1,1.010668874E-1,-3.528685868E-2,8.788425475E-3,1.074100300E-1
3.879238620E-1,7.443529367E-2,-7.470161468E-2,-3.994738683E-3,1.055315219E-1
3.904325600E-1,4.673844203E-2,-1.130511016E-1,-1.464737486E-2,1.232054346E-1
3.929412580E-1,1.691105962E-2,-1.524658650E-1,-2.210422046E-2,1.549852267E-1
3.954499560E-1,-1.504684892E-2,-1.929458827E-1,-3.062633052E-2,1.959400251E-1
3.979586540E-1,-4.593949392E-2,-2.312953621E-1,-3.701791167E-2,2.387012933E-1
4.004673520E-1,-7.896266878E-2,-2.664490640E-1,-4.021370411E-2,2.807977008E-1
4.029760500E-1,-1.098553166E-1,-2.962764502E-1,-4.234423116E-2,3.188117931E-1
4.054847480E-1,-1.396826953E-1,-3.218427896E-1,-4.021370411E-2,3.531446992E-1
4.079934450E-1,-1.673795432E-1,-3.431480527E-1,-3.488738462E-2,3.833844378E-1
4.105021430E-1,-1.940111369E-1,-3.601922691E-1,-2.849580161E-2,4.101107200E-1
4.130108410E-1,-2.174469382E-1,-3.751059473E-1,-2.210422046E-2,4.341385023E-1
4.155195390E-1,-2.376869470E-1,-3.868238628E-1,-1.145158429E-2,4.541573784E-1
4.180282370E-1,-2.547311783E-1,-3.932154477E-1,1.331579522E-3,4.685169523E-1
4.205369350E-1,-2.653838098E-1,-3.974764943E-1,1.518000662E-2,4.781700144E-1
4.230456330E-1,-2.717753947E-1,-4.006722867E-1,3.115896136E-2,4.851505203E-1
4.255543310E-1,-2.739059031E-1,-4.017375410E-1,4.820318148E-2,4.886113407E-1
4.280630290E-1,-2.696448565E-1,-4.017375410E-1,6.524740160E-2,4.882198520E-1
4.305717270E-1,-2.589922249E-1,-3.985417485E-1,8.016108721E-2,4.820148315E-1
4.330804250E-1,-2.430132627E-1,-3.942807019E-1,9.400951862E-2,4.725997327E-1
4.355891230E-1,-2.206427306E-1,-3.878891170E-1,1.067926809E-1,4.588527633E-1
4.380978200E-1,-1.908153445E-1,-3.814975321E-1,1.163800508E-1,4.421483675E-1
4.406065180E-1,-1.577921808E-1,-3.772364855E-1,1.227716357E-1,4.269409945E-1
4.431152160E-1,-1.237037405E-1,-3.697796464E-1,1.270326823E-1,4.100937755E-1
4.456239140E-1,-8.428898454E-2,-3.644533157E-1,1.280979514E-1,3.953984540E-1
4.481326120E-1,-4.380896688E-2,-3.569964767E-1,1.249021590E-1,3.807443489E-1
4.506413100E-1,-5.459476262E-3,-3.495396376E-1,1.195758432E-1,3.694673820E-1
4.531500080E-1,3.289001435E-2,-3.410175145E-1,1.142495275E-1,3.611476883E-1
4.556587060E-1,6.697845459E-2,-3.303648829E-1,1.067926809E-1,3.535982833E-1
4.581674040E-1,9.787109494E-2,-3.186469972E-1,9.614004195E-2,3.469258822E-1
4.606761020E-1,1.234374270E-1,-3.058638275E-1,8.335687965E-2,3.402026583E-1
4.631848000E-1,1.426121742E-1,-2.898848653E-1,6.737792492E-2,3.300170482E-1
4.656934980E-1,1.564605981E-1,-2.739059031E-1,5.352949724E-2,3.199527615E-1
4.682021950E-1,1.628521830E-1,-2.568616867E-1,3.968106955E-2,3.067137866E-1
4.707108930E-1,1.639174372E-1,-2.366216928E-1,2.583264373E-2,2.890087839E-1
4.732195910E-1,1.564605981E-1,-2.174469382E-1,1.091895252E-2,2.681087712E-1
4.757282890E-1,1.415469050E-1,-1.972069293E-1,-2.929474926E-3,2.427646620E-1
4.782369870E-1,1.223721579E-1,-1.780321896E-1,-1.677790284E-2,2.166838794E-1
4.807456850E-1,9.680583328E-2,-1.577921808E-1,-2.743053809E-2,1.871421281E-1
4.832543830E-1,6.910897791E-2,-1.396826953E-1,-3.595264629E-2,1.599371719E-1
4.857630810E-1,3.395527974E-2,-1.226384789E-1,-4.234423116E-2,1.341126073E-1
4.882717790E-1,-1.198421582E-3,-1.045289934E-1,-4.660528526E-2,1.144543546E-1
4.907804770E-1,-4.061317816E-2,-8.961530030E-2,-5.086633936E-2,1.107597254E-1
4.932891750E-1,-8.002793044E-2,-7.576687634E-2,-5.193160102E-2,1.218276667E-1
4.957978730E-1,-1.194426864E-1,-6.298371404E-2,-5.193160102E-2,1.446734072E-1
4.983065700E-1,-1.588574350E-1,-5.339634046E-2,-4.873581231E-2,1.745337596E-1
5.008152680E-1,-1.982721984E-1,-4.700475931E-2,-4.340949282E-2,2.083403373E-1
5.033239660E-1,-2.366216928E-1,-3.954791278E-2,-3.701791167E-2,2.427430507E-1
5.058326640E-1,-2.707101107E-1,-3.528685868E-2,-2.849580161E-2,2.744834004E-1
5.083413620E-1,-3.016027808E-1,-3.315633163E-2,-2.103895694E-2,3.041483477E-1
5.108500600E-1,-3.314301372E-1,-3.209106624E-2,-9.321057238E-3,3.331105739E-1
5.133587580E-1,-3.591270149E-1,-3.209106624E-2,2.663159103E-4,3.605580678E-1
5.158674560E-1,-3.825628161E-1,-3.209106624E-2,9.853689000E-3,3.840328632E-1
5.183761540E-1,-4.028028250E-1,-3.315633163E-2,2.157158963E-2,4.047404003E-1
5.208848520E-1,-4.187817574E-1,-3.422159329E-2,3.222422674E-2,4.214115311E-1
5.233935500E-1,-4.294344187E-1,-3.528685868E-2,4.287686199E-2,4.330098239E-1
5.259022480E-1,-4.358259737E-1,-3.635212034E-2,5.139897019E-2,4.403494183E-1
5.284109450E-1,-4.358259737E-1,-3.848264739E-2,6.311687082E-2,4.420508262E-1
5.309196430E-1,-4.315649271E-1,-3.741738573E-2,7.163897902E-2,4.390677515E-1
5.334283410E-1,-4.241080880E-1,-3.635212034E-2,8.122635633E-2,4.333438219E-1
5.359370390E-1,-4.091944098E-1,-3.528685868E-2,8.868319541E-2,4.201784580E-1
5.384457370E-1,-3.910849094E-1,-3.209106624E-2,9.827057272E-2,4.045174266E-1
5.409544350E-1,-3.687143922E-1,-2.783001214E-2,1.057274193E-1,3.845817205E-1
5.434631330E-1,-3.410175145E-1,-2.250369452E-2,1.142495275E-1,3.603502684E-1
5.459718310E-1,-3.111901283E-1,-1.717737690E-2,1.206411049E-1,3.341984956E-1
5.484805290E-1,-2.760364413E-1,-1.291632187E-2,1.259674281E-1,3.036951453E-1
5.509892270E-1,-2.387522161E-1,-6.524739787E-3,1.291632205E-1,2.715296125E-1
5.534979250E-1,-1.972069293E-1,-1.331579551E-4,1.323590130E-1,2.375068399E-1
5.560066230E-1,-1.556616426E-1,5.193160381E-3,1.366200596E-1,2.071775967E-1
5.585153200E-1,-1.109205782E-1,1.265000552E-2,1.387505829E-1,1.780873987E-1
5.610240180E-1,-6.404897571E-2,2.223737910E-2,1.398158520E-1,1.553874023E-1
5.635327160E-1,-1.504684892E-2,3.182475269E-2,1.408811212E-1,1.452126470E-1
5.660414140E-1,3.502054140E-2,4.460791498E-2,1.398158520E-1,1.508800082E-1
5.685501120E-1,8.934898674E-2,5.739107728E-2,1.398158520E-1,1.755717792E-1
5.710588100E-1,1.426121742E-1,7.337003201E-2,1.398158520E-1,2.127671645E-1
5.735675080E-1,1.990711391E-1,9.041424841E-2,1.398158520E-1,2.595236545E-1
5.760762060E-1,2.576606572E-1,1.127847880E-1,1.387505829E-1,3.136258072E-1
5.785849040E-1,3.183806837E-1,1.351553202E-1,1.408811212E-1,3.734711643E-1
5.810936020E-1,3.791007102E-1,1.585911214E-1,1.408811212E-1,4.344145285E-1
5.836023000E-1,4.387554526E-1,1.852227151E-1,1.398158520E-1,4.963489437E-1
5.861109980E-1,4.962796867E-1,2.150501013E-1,1.387505829E-1,5.583831997E-1
5.886196950E-1,5.527386665E-1,2.427469492E-1,1.376853287E-1,6.191957401E-1
5.911283930E-1,6.049365997E-1,2.736395895E-1,1.366200596E-1,6.778583594E-1
5.936370910E-1,6.518082023E-1,3.034669757E-1,1.344895363E-1,7.314598918E-1
5.961457890E-1,6.944187284E-1,3.375554085E-1,1.312937438E-1,7.831979770E-1
5.986544870E-1,7.295724154E-1,3.705785871E-1,1.249021590E-1,8.277710721E-1
6.011631850E-1,7.572692633E-1,4.036017656E-1,1.174453199E-1,8.661088416E-1
6.036718830E-1,7.753787637E-1,4.366249442E-1,1.110537350E-1,8.967644625E-1
6.061805810E-1,7.860314250E-1,4.707133770E-1,1.025316268E-1,9.219160585E-1
6.086892790E-1,7.860314250E-1,4.973449707E-1,9.400951862E-2,9.348985028E-1
6.111979770E-1,7.775092721E-1,5.175849795E-1,8.548741043E-2,9.379354864E-1
6.137066750E-1,7.615303397E-1,5.271723270E-1,7.696529478E-2,9.293883888E-1
6.162153730E-1,7.359640002E-1,5.282375813E-1,6.631266326E-2,9.083365682E-1
6.187240700E-1,7.029408216E-1,5.207807422E-1,5.672528967E-2,8.766733363E-1
6.212327680E-1,6.656566262E-1,5.037365556E-1,4.607265070E-2,8.360454238E-1
6.237414660E-1,6.209155321E-1,4.803007543E-1,3.542001545E-2,7.857986320E-1
6.262501640E-1,5.740439296E-1,4.483428299E-1,2.583264373E-2,7.288381519E-1
6.287588620E-1,5.229113102E-1,4.099933505E-1,1.624527015E-2,6.646763834E-1
6.312675600E-1,4.739091694E-1,3.663175404E-1,7.723161485E-3,5.990309579E-1
6.337762580E-1,4.206459820E-1,3.162501454E-1,-1.864211401E-3,5.262705312E-1
6.362849560E-1,3.673827946E-1,2.597911656E-1,-1.145158429E-2,4.501029952E-1
6.387936540E-1,3.162501454E-1,1.980058849E-1,-1.997369342E-2,3.736568390E-1
6.413023520E-1,2.651174963E-1,1.319595277E-1,-2.849580161E-2,2.975106964E-1
6.438110500E-1,2.171806246E-1,6.271740049E-2,-3.595264629E-2,2.288962403E-1
6.463197480E-1,1.735048145E-1,-8.655266836E-3,-4.340949282E-2,1.790620517E-1
6.488284450E-1,1.308942735E-1,-8.109319210E-2,-4.767054692E-2,1.611890123E-1
6.513371430E-1,9.147951752E-2,-1.556616426E-1,-5.299686641E-2,1.881693836E-1
6.538458410E-1,5.526055023E-2,-2.291648388E-1,-5.725792050E-2,2.425875537E-1
6.563545390E-1,2.223737910E-2,-3.026680350E-1,-5.938844755E-2,3.092400818E-1
6.588632370E-1,-7.590003312E-3,-3.740406930E-1,-6.151897460E-2,3.791419687E-1
6.613719350E-1,-3.528685868E-2,-4.443480968E-1,-6.151897460E-2,4.499721967E-1
6.638806330E-1,-6.085318699E-2,-5.114597082E-1,-6.045371294E-2,5.186027332E-1
6.663893310E-1,-8.428898454E-2,-5.753754973E-1,-5.725792050E-2,5.843287305E-1
6.688980290E-1,-1.055942550E-1,-6.350302696E-1,-5.619265884E-2,6.461974969E-1
6.714067270E-1,-1.247690022E-1,-6.914892793E-1,-5.299686641E-2,7.046512578E-1
6.739154250E-1,-1.418132186E-1,-7.447524667E-1,-4.980107397E-2,7.597679728E-1
6.764241230E-1,-1.577921808E-1,-7.926893234E-1,-4.660528526E-2,8.095843306E-1
6.789328200E-1,-1.727058738E-1,-8.352998495E-1,-4.127896577E-2,8.539655207E-1
6.814415180E-1,-1.865542978E-1,-8.736493587E-1,-3.914843872E-2,8.942026103E-1
6.839502160E-1,-1.972069293E-1,-9.066725373E-1,-3.808317333E-2,9.286527828E-1
6.864589140E-1,-2.078595608E-1,-9.364998937E-1,-3.595264629E-2,9.599636663E-1
6.889676120E-1,-2.153164148E-1,-9.620662332E-1,-3.275685757E-2,9.864104659E-1
6.914763100E-1,-2.227732539E-1,-9.823062420E-1,-3.169159219E-2,1.007748894E0
6.939850080E-1,-2.280995846E-1,-9.982851744E-1,-3.062633052E-2,1.024470928E0
6.964937060E-1,-2.334259003E-1,-1.010003090E0,-2.849580161E-2,1.037017793E0
6.990024040E-1,-2.376869470E-1,-1.015329361E0,-2.956106514E-2,1.043198281E0
7.015111020E-1,-2.398174703E-1,-1.016394615E0,-2.849580161E-2,1.044692511E0
7.040198000E-1,-2.408827394E-1,-1.014264107E0,-2.956106514E-2,1.042895023E0
7.065284980E-1,-2.419480085E-1,-1.006807327E0,-3.169159219E-2,1.035955689E0
7.090371950E-1,-2.408827394E-1,-9.950894117E-1,-3.275685757E-2,1.024353671E0
7.115458930E-1,-2.398174703E-1,-9.791104198E-1,-3.488738462E-2,1.008655919E0
7.140545910E-1,-2.376869470E-1,-9.567399025E-1,-3.914843872E-2,9.865996787E-1
7.165632890E-1,-2.344911546E-1,-9.279778004E-1,-4.234423116E-2,9.580824252E-1
7.190719870E-1,-2.291648388E-1,-8.938893676E-1,-4.767054692E-2,9.240277084E-1
7.215806850E-1,-2.238385230E-1,-8.544746041E-1,-5.193160102E-2,8.848318624E-1
7.240893830E-1,-2.217079997E-1,-8.086682558E-1,-5.832318589E-2,8.405357691E-1
7.265980810E-1,-2.185122073E-1,-7.564703226E-1,-6.364950538E-2,7.899659444E-1
7.291067790E-1,-2.131858915E-1,-6.978808641E-1,-7.110634446E-2,7.331725834E-1
7.316154770E-1,-2.099900991E-1,-6.339650154E-1,-7.856319100E-2,6.724430515E-1
7.341241750E-1,-2.057290375E-1,-5.625923872E-1,-8.495477587E-2,6.050222682E-1
7.366328730E-1,-2.046637833E-1,-4.858933687E-1,-9.241162241E-2,5.352751983E-1
7.391415700E-1,-2.035985142E-1,-4.028028250E-1,-9.667267650E-2,4.615713132E-1
7.416502680E-1,-2.046637833E-1,-3.143859208E-1,-1.009337306E-1,3.884757256E-1
7.441589660E-1,-2.067943066E-1,-2.227732539E-1,-1.051947847E-1,3.216484893E-1
7.466676640E-1,-2.110553533E-1,-1.258342713E-1,-1.094558388E-1,2.689966666E-1
7.491763620E-1,-2.174469382E-1,-2.569948509E-2,-1.158474237E-1,2.477181060E-1
7.516850600E-1,-2.249037921E-1,7.337003201E-2,-1.201084778E-1,2.653128790E-1
7.541937580E-1,-2.334259003E-1,1.745700836E-1,-1.243695319E-1,3.169071560E-1
7.567024560E-1,-2.440785319E-1,2.757701278E-1,-1.275653243E-1,3.897388934E-1
7.592111540E-1,-2.568616867E-1,3.759049177E-1,-1.328916401E-1,4.742811627E-1
7.617198520E-1,-2.717753947E-1,4.707133770E-1,-1.371526867E-1,5.605745338E-1
7.642285500E-1,-2.866890728E-1,5.623260736E-1,-1.392832249E-1,6.463753200E-1
7.667372480E-1,-3.058638275E-1,6.496776342E-1,-1.414137483E-1,7.318685385E-1
7.692459450E-1,-3.282343447E-1,7.338334918E-1,-1.435442716E-1,8.166114968E-1
7.717546430E-1,-3.538006842E-1,8.105324507E-1,-1.456748098E-1,8.963029220E-1
7.742633410E-1,-3.804322779E-1,8.808398843E-1,-1.478053331E-1,9.708007192E-1
7.767720390E-1,-4.091944098E-1,9.383640885E-1,-1.478053331E-1,1.034317961E0
7.792807370E-1,-4.422175586E-1,9.788441062E-1,-1.510011256E-1,1.084662848E0
7.817894350E-1,-4.784365296E-1,9.990841150E-1,-1.541969180E-1,1.118412836E0
7.842981330E-1,-5.167860389E-1,9.916272759E-1,-1.616537571E-1,1.129833794E0
7.868068310E-1,-5.572660565E-1,9.575388432E-1,-1.701758653E-1,1.120886220E0
7.893155290E-1,-5.998765826E-1,8.989493847E-1,-1.786979735E-1,1.095397132E0
7.918242270E-1,-6.403566003E-1,8.179892898E-1,-1.914811432E-1,1.056327639E0
7.943329250E-1,-6.776408553E-1,7.167892456E-1,-2.042642981E-1,1.007327084E0
7.968416230E-1,-7.064029574E-1,5.985450149E-1,-2.159821987E-1,9.507415965E-1
7.993503200E-1,-7.202513814E-1,4.696480930E-1,-2.245043069E-1,8.886695491E-1
8.018590180E-1,-7.085334659E-1,3.311638236E-1,-2.287653685E-1,8.148759072E-1
8.043677160E-1,-6.563355327E-1,1.873532385E-1,-2.266348451E-1,7.191946332E-1
8.068764140E-1,-5.380913019E-1,4.460791498E-2,-2.127864063E-1,5.803534871E-1
8.093851120E-1,-3.399522603E-1,-8.855003864E-2,-1.861548275E-1,3.975704571E-1
8.118938100E-1,-7.683213800E-2,-2.067943066E-1,-1.456748098E-1,2.643637889E-1
8.144025080E-1,2.288985252E-1,-3.058638275E-1,-9.241162241E-2,3.930485005E-1
8.169112060E-1,5.495429039E-1,-3.836280704E-1,-3.595264629E-2,6.711635362E-1
8.194199040E-1,8.563387990E-1,-4.379565120E-1,1.411474310E-2,9.619362094E-1
8.219286020E-1,1.127981067E0,-4.613923132E-1,5.459476262E-2,1.219919973E0
8.244373000E-1,1.341033816E0,-4.550007284E-1,8.122635633E-2,1.418448124E0
8.269459980E-1,1.490170717E0,-4.145207107E-1,9.614004195E-2,1.549735169E0
8.294546950E-1,1.570065498E0,-3.420827985E-1,1.004010960E-1,1.610033133E0
8.319633930E-1,1.587109685E0,-2.408827394E-1,9.294424951E-2,1.607973967E0
8.344720910E-1,1.551955938E0,-1.141163707E-1,8.016108721E-2,1.558209094E0
8.369807890E-1,1.473126411E0,3.395527974E-2,6.311687082E-2,1.474868850E0
8.394894870E-1,1.361273766E0,1.958753467E-1,4.394212365E-2,1.375995758E0
8.419981850E-1,1.227050543E0,3.631217480E-1,2.263685316E-2,1.279852673E0
8.445068830E-1,1.076848388E0,5.250418186E-1,2.396843163E-3,1.198030511E0
8.470155810E-1,9.191893935E-1,6.677871346E-1,-1.358211134E-2,1.136236451E0
8.495242790E-1,7.562040091E-1,7.849661708E-1,-2.956106514E-2,1.090362439E0
8.520329770E-1,5.974797606E-1,8.755135536E-1,-4.127896577E-2,1.060759162E0
8.545416750E-1,4.440817833E-1,9.426251650E-1,-4.980107397E-2,1.043183099E0
8.570503730E-1,3.002711833E-1,9.894967675E-1,-5.725792050E-2,1.035637536E0
8.595590700E-1,1.628521830E-1,1.018258929E0,-6.364950538E-2,1.033161817E0
8.620677680E-1,3.182475269E-2,1.031042099E0,-6.578002870E-2,1.033628384E0
8.645764660E-1,-8.855003864E-2,1.026780963E0,-6.578002870E-2,1.032689337E0
8.670851640E-1,-2.025332451E-1,1.008671522E0,-6.897582114E-2,1.031113776E0
8.695938620E-1,-3.058638275E-1,9.831051826E-1,-7.004108280E-2,1.031966198E0
8.721025600E-1,-3.996070325E-1,9.468862414E-1,-7.217161357E-2,1.030285434E0
8.746112580E-1,-4.837628603E-1,9.021451473E-1,-7.323687524E-2,1.026282618E0
8.771199560E-1,-5.562008023E-1,8.520777822E-1,-7.430213690E-2,1.020253246E0
8.796286540E-1,-6.158555150E-1,7.966840267E-1,-7.643266767E-2,1.009864053E0
8.821373520E-1,-6.627271175E-1,7.348987460E-1,-7.856319100E-2,9.927011505E-1
8.846460500E-1,-6.946850419E-1,6.699176431E-1,-7.962846011E-2,9.683582228E-1
8.871547480E-1,-7.106640339E-1,6.006755233E-1,-8.175898343E-2,9.340979524E-1
8.896634450E-1,-7.074682117E-1,5.293028951E-1,-8.388951421E-2,8.875304366E-1
8.921721430E-1,-6.904240251E-1,4.579302073E-1,-8.282424510E-2,8.326135146E-1
8.946808410E-1,-6.531397700E-1,3.854922652E-1,-8.175898343E-2,7.628108397E-1
8.971895390E-1,-5.988113284E-1,3.119890988E-1,-7.856319100E-2,6.797678867E-1
8.996982370E-1,-5.285038948E-1,2.416816950E-1,-7.110634446E-2,5.854763195E-1
9.022069350E-1,-4.475438893E-1,1.788311303E-1,-6.151897460E-2,4.858607725E-1
9.047156330E-1,-3.569964767E-1,1.202416345E-1,-4.767054692E-2,3.797064867E-1
9.072243310E-1,-2.600574791E-1,6.804371625E-2,-2.743053809E-2,2.702078352E-1
9.097330290E-1,-1.588574350E-1,2.330264263E-2,-8.255792782E-3,1.607695740E-1
9.122417270E-1,-5.765739456E-2,-1.504684892E-2,1.198421605E-2,6.078161107E-2
9.147504250E-1,4.141212255E-2,-4.913528636E-2,3.435475379E-2,7.286624299E-2
9.172591230E-1,1.362205893E-1,-8.109319210E-2,5.352949724E-2,1.673247197E-1
9.197678200E-1,2.257027328E-1,-1.119858399E-1,7.163897902E-2,2.619440689E-1
9.222765180E-1,3.098585606E-1,-1.450090110E-1,8.761793375E-2,3.531527193E-1
9.247852160E-1,3.844270110E-1,-1.812279820E-1,1.014663652E-1,4.369475158E-1
9.272939140E-1,4.494080842E-1,-2.206427306E-1,1.099884734E-1,5.125898018E-1
9.298026120E-1,5.058670640E-1,-2.632532716E-1,1.163800508E-1,5.820206935E-1
9.323113100E-1,5.559344888E-1,-3.058638275E-1,1.174453199E-1,6.452977917E-1
9.348200080E-1,5.964145064E-1,-3.495396376E-1,1.153147891E-1,7.008464328E-1
9.373287060E-1,6.273071170E-1,-3.889544010E-1,1.099884734E-1,7.462554585E-1
9.398374040E-1,6.475471258E-1,-4.262386262E-1,1.025316268E-1,7.819906529E-1
9.423461020E-1,6.592650414E-1,-4.603270590E-1,9.294424951E-2,8.094257406E-1
9.448548000E-1,6.613955498E-1,-4.890891612E-1,7.696529478E-2,8.261815402E-1
9.473634980E-1,6.550039649E-1,-5.125249624E-1,5.885581672E-2,8.337721741E-1
9.498721950E-1,6.411555409E-1,-5.306344628E-1,3.755054250E-2,8.331046777E-1
9.523808930E-1,6.187850237E-1,-5.434176326E-1,1.518000662E-2,8.236674460E-1
9.548895910E-1,5.889576077E-1,-5.519397259E-1,-9.321057238E-3,8.072145978E-1
9.573982890E-1,5.506081581E-1,-5.519397259E-1,-3.595264629E-2,7.804482030E-1
9.599069870E-1,5.058670640E-1,-5.519397259E-1,-6.258423626E-2,7.513026914E-1
9.624156850E-1,4.547344148E-1,-5.444828868E-1,-8.815056831E-2,7.148534988E-1
9.649243830E-1,3.961449265E-1,-5.348954797E-1,-1.126516312E-1,6.750810078E-1
9.674330810E-1,3.332943618E-1,-5.199818015E-1,-1.360874325E-1,6.324444599E-1
9.699417790E-1,2.651174963E-1,-5.029376149E-1,-1.584579647E-1,5.902054370E-1
9.724504770E-1,1.916143000E-1,-4.837628603E-1,-1.776327193E-1,5.498144486E-1
9.749591750E-1,1.138500497E-1,-4.645881057E-1,-1.936116666E-1,5.160323819E-1
9.774678730E-1,3.289001435E-2,-4.464786351E-1,-2.063948363E-1,4.929743939E-1
9.799765700E-1,-5.020054802E-2,-4.273038805E-1,-2.159821987E-1,4.814114783E-1
9.824852680E-1,-1.332911104E-1,-4.113249183E-1,-2.223737836E-1,4.862147757E-1
9.849939660E-1,-2.185122073E-1,-4.017375410E-1,-2.255695760E-1,5.099237886E-1
9.875026640E-1,-3.026680350E-1,-3.942807019E-1,-2.266348451E-1,5.462861561E-1
9.900113620E-1,-3.868238628E-1,-3.900196552E-1,-2.245043069E-1,5.934224601E-1
9.925200600E-1,-4.699144363E-1,-3.900196552E-1,-2.213085145E-1,6.495478177E-1
9.950287580E-1,-5.487439036E-1,-3.953459561E-1,-2.159821987E-1,7.099764834E-1
9.975374560E-1,-6.243776679E-1,-4.059986174E-1,-2.106558830E-1,7.739885339E-1
1.000046154E0,-6.978808641E-1,-4.241080880E-1,-2.053295672E-1,8.420603316E-1
1.002554852E0,-7.692534924E-1,-4.475438893E-1,-1.978727281E-1,9.117017521E-1
1.005063550E0,-8.363651037E-1,-4.763059914E-1,-1.904158741E-1,9.811382111E-1
1.007572248E0,-8.970851302E-1,-5.125249624E-1,-1.840242893E-1,1.049432469E0
1.010080945E0,-9.567399025E-1,-5.540702343E-1,-1.786979735E-1,1.119945548E0
1.012589643E0,-1.011068344E0,-5.988113284E-1,-1.733716577E-1,1.187809722E0
1.015098341E0,-1.062201023E0,-6.435524225E-1,-1.691105962E-1,1.253407008E0
1.017607039E0,-1.106942058E0,-6.819018722E-1,-1.637842804E-1,1.310395426E0
1.020115737E0,-1.148487329E0,-7.127945423E-1,-1.552621722E-1,1.360590147E0
1.022624435E0,-1.185771585E0,-7.404913902E-1,-1.478053331E-1,1.405783826E0
1.025133133E0,-1.217729449E0,-7.596661448E-1,-1.360874325E-1,1.441692565E0
1.027641831E0,-1.245426297E0,-7.745798230E-1,-1.254348010E-1,1.472003551E0
1.030150529E0,-1.267796874E0,-7.831019163E-1,-1.126516312E-1,1.494405539E0
1.032659227E0,-1.284841061E0,-7.852324843E-1,-9.773793817E-2,1.508959678E0
1.035167925E0,-1.295493722E0,-7.809714079E-1,-8.175898343E-2,1.514894338E0
1.037676623E0,-1.300820112E0,-7.681882381E-1,-6.471476704E-2,1.512095941E0
1.040185320E0,-1.292297959E0,-7.458177209E-1,-4.767054692E-2,1.492833068E0
1.042694018E0,-1.259274840E0,-7.106640339E-1,-3.062633052E-2,1.446289897E0
1.045202716E0,-1.193228483E0,-6.616618633E-1,-1.251684781E-2,1.364458613E0
1.047711414E0,-1.095224142E0,-5.913544893E-1,4.527370445E-3,1.244683313E0
1.050220112E0,-9.546093941E-1,-4.912196994E-1,2.583264373E-2,1.073891621E0
1.052728810E0,-7.649924755E-1,-3.644533157E-1,4.820318148E-2,8.487421597E-1
1.055237508E0,-5.263733864E-1,-2.099900991E-1,7.696529478E-2,5.719164626E-1
1.057746206E0,-2.419480085E-1,-3.209106624E-2,1.163800508E-1,2.703941412E-1
1.060254904E0,7.337003201E-2,1.564605981E-1,1.675127149E-1,2.406732017E-1
1.062763602E0,3.950796425E-1,3.450122476E-1,2.271674722E-1,5.715998910E-1
1.065272300E0,7.008103132E-1,5.293028951E-1,2.900180221E-1,9.248822103E-1
1.067780998E0,9.692567587E-1,6.997450590E-1,3.507380486E-1,1.245840676E0
1.070289695E0,1.187635779E0,8.552735448E-1,4.008054435E-1,1.517437506E0
1.072798393E0,1.344229579E0,9.980188608E-1,4.338286221E-1,1.729509202E0
1.075307091E0,1.440103292E0,1.130111575E0,4.508728385E-1,1.885294667E0
1.077815789E0,1.477387547E0,1.261139035E0,4.508728385E-1,1.994099282E0
1.080324487E0,1.465669632E0,1.391101122E0,4.327633679E-1,2.066551217E0
1.082833185E0,1.410275936E0,1.525324345E0,4.061317742E-1,2.116703945E0
1.085341883E0,1.320793748E0,1.670200229E0,3.667170107E-1,2.160681905E0
1.087850581E0,1.205745339E0,1.824663401E0,3.219759464E-1,2.210630421E0
1.090359279E0,1.074717879E0,1.983387709E0,2.708432674E-1,2.272047842E0
1.092867977E0,9.319725037E-1,2.139981508E0,2.197106332E-1,2.344433058E0
1.095376675E0,7.828356028E-1,2.288053036E0,1.675127149E-1,2.424062455E0
1.097885373E0,6.315681934E-1,2.423341513E0,1.163800508E-1,2.506991581E0
1.100394070E0,4.803007543E-1,2.541585922E0,6.844318658E-2,2.587476045E0
1.102902768E0,3.300985694E-1,2.638524771E0,2.689790726E-2,2.659229499E0
1.105411466E0,1.852227151E-1,2.715223789E0,-1.038632076E-2,2.721553886E0
1.107920164E0,4.886896908E-2,2.770617485E0,-3.914843872E-2,2.771324958E0
1.110428862E0,-7.896266878E-2,2.804706097E0,-6.258423626E-2,2.806515309E0
1.112937560E0,-1.982721984E-1,2.819619656E0,-8.069372177E-2,2.827733782E0
1.115446258E0,-3.069290817E-1,2.811097622E0,-9.134636074E-2,2.829278964E0
1.117954956E0,-4.070638716E-1,2.782335520E0,-9.773793817E-2,2.813653256E0
1.120463654E0,-4.965460002E-1,2.733333349E0,-9.880319983E-2,2.779825750E0
1.122972352E0,-5.764408112E-1,2.668352365E0,-9.454214573E-2,2.731542892E0
1.125481050E0,-6.467481852E-1,2.586327076E0,-8.175898343E-2,2.667218681E0
1.127989748E0,-7.042724490E-1,2.486192226E0,-6.684529036E-2,2.584882930E0
1.130498445E0,-7.490134835E-1,2.366882563E0,-4.554001987E-2,2.482987748E0
1.133007143E0,-7.820366621E-1,2.229463577E0,-1.997369342E-2,2.362728959E0
1.135515841E0,-8.022766709E-1,2.078196287E0,8.788425475E-3,2.227694975E0
1.138024539E0,-8.107987642E-1,1.915210843E0,3.968106955E-2,2.080144658E0
1.140533185E0,-8.086682558E-1,1.738377094E0,7.163897902E-2,1.918601421E0
1.143041831E0,-7.937545776E-1,1.551955938E0,1.014663652E-1,1.746112536E0
1.145550477E0,-7.671229839E-1,1.353816986E0,1.323590130E-1,1.561671224E0
1.148059123E0,-7.234471440E-1,1.145025253E0,1.568600684E-1,1.363474856E0
1.150567768E0,-6.680534482E-1,9.277114868E-1,1.802958697E-1,1.157346367E0
1.153076414E0,-6.020070910E-1,7.061366439E-1,1.994706094E-1,9.491206570E-1
1.155585060E0,-5.295692086E-1,4.824312627E-1,2.154495716E-1,7.480654971E-1
1.158093706E0,-4.486091435E-1,2.587259114E-1,2.314285189E-1,5.672287195E-1
1.160602352E0,-3.633880615E-1,3.715106845E-2,2.452769578E-1,4.399907626E-1
1.163110998E0,-2.749711871E-1,-1.822932363E-1,2.548643351E-1,4.168882428E-1
1.165619643E0,-1.886848211E-1,-3.942807019E-1,2.665822208E-1,5.119817517E-1
1.168128289E0,-1.023984700E-1,-5.934849977E-1,2.740390599E-1,6.616700806E-1
1.170636935E0,-1.504684892E-2,-7.884282470E-1,2.804306448E-1,8.369509274E-1
1.173145581E0,6.910897791E-2,-9.716535807E-1,2.836264372E-1,1.014559356E0
1.175654227E0,1.490037590E-1,-1.143161058E0,2.825611830E-1,1.186954147E0
1.178162873E0,2.246374637E-1,-1.299754858E0,2.772348523E-1,1.347844147E0
1.180671518E0,2.917490900E-1,-1.442500114E0,2.676474750E-1,1.495847346E0
1.183180164E0,3.545996249E-1,-1.568201184E0,2.537990510E-1,1.627700773E0
1.185688810E0,4.099933505E-1,-1.675792813E0,2.356895804E-1,1.741242568E0
1.188197456E0,4.568649530E-1,-1.769536018E0,2.122537792E-1,1.839846453E0
1.190706102E0,4.941491783E-1,-1.840908766E0,1.845569313E-1,1.914990798E0
1.193214748E0,5.186502337E-1,-1.895237207E0,1.515337527E-1,1.970757371E0
1.195723393E0,5.293028951E-1,-1.929325581E0,1.153147891E-1,2.003935191E0
1.198232039E0,5.271723270E-1,-1.948500395E0,7.696529478E-2,2.020021809E0
1.200740685E0,5.101281404E-1,-1.949565649E0,4.181159660E-2,2.015635173E0
1.203249331E0,4.803007543E-1,-1.938912988E0,1.198421605E-2,1.997552505E0
1.205758029E0,4.376901984E-1,-1.914411902E0,-1.358211134E-2,1.963855930E0
1.208266727E0,3.833617568E-1,-1.881388783E0,-3.062633052E-2,1.920293718E0
1.210775425E0,3.215764761E-1,-1.834517121E0,-3.914843872E-2,1.862900185E0
1.213284123E0,2.544648647E-1,-1.779123425E0,-4.021370411E-2,1.797678968E0
1.215792820E0,1.841574460E-1,-1.717338204E0,-3.595264629E-2,1.727558122E0
1.218301518E0,1.106542572E-1,-1.647030711E0,-2.530001104E-2,1.650937497E0
1.220810216E0,3.715106845E-2,-1.572462320E0,-1.038632076E-2,1.572935417E0
1.223318914E0,-3.315633163E-2,-1.489371777E0,6.657897960E-3,1.489755671E0
1.225827612E0,-9.494162351E-2,-1.403085351E0,2.902843431E-2,1.406593425E0
1.228336310E0,-1.492700726E-1,-1.310407400E0,5.352949724E-2,1.319967619E0
1.230845008E0,-1.940111369E-1,-1.214533687E0,8.122635633E-2,1.232611098E0
1.233353706E0,-2.280995846E-1,-1.116529465E0,1.174453199E-1,1.145626846E0
1.235862404E0,-2.526006401E-1,-1.023851514E0,1.600558609E-1,1.066628747E0
1.238371102E0,-2.664490640E-1,-9.428914785E-1,2.111885101E-1,1.002317330E0
1.240879800E0,-2.664490640E-1,-8.672577739E-1,2.687127590E-1,9.462228580E-1
1.243388498E0,-2.536658943E-1,-7.948198318E-1,3.251717389E-1,8.954449234E-1
1.245897195E0,-2.238385230E-1,-7.277082205E-1,3.731085956E-1,8.478637642E-1
1.248405893E0,-1.833585054E-1,-6.680534482E-1,4.114580750E-1,8.057378598E-1
1.250914591E0,-1.354216337E-1,-6.137250066E-1,4.423507154E-1,7.685515975E-1
1.253423289E0,-8.215846121E-2,-5.657881498E-1,4.636560082E-1,7.360999506E-1
1.255931987E0,-2.143843099E-2,-5.274386406E-1,4.785696864E-1,7.125167161E-1
1.258440685E0,3.502054140E-2,-4.944154918E-1,4.849612713E-1,6.934410945E-1
1.260949383E0,8.934898674E-2,-4.624575675E-1,4.860265255E-1,6.768101851E-1
1.263458081E0,1.383511126E-1,-4.368912578E-1,4.817654788E-1,6.649157677E-1
1.265966779E0,1.830921918E-1,-4.091944098E-1,4.732433856E-1,6.518605048E-1
1.268475477E0,2.214416862E-1,-3.846933246E-1,4.551338851E-1,6.357454111E-1
1.270984175E0,2.555301189E-1,-3.591270149E-1,4.348938763E-1,6.191934578E-1
1.273492873E0,2.821617126E-1,-3.356912136E-1,4.114580750E-1,6.013331610E-1
1.276001570E0,3.034669757E-1,-3.133206666E-1,3.848264813E-1,5.816815849E-1
1.278510268E0,3.215764761E-1,-2.909501195E-1,3.539338410E-1,5.597611685E-1
1.281018966E0,3.332943618E-1,-2.664490640E-1,3.187801540E-1,5.326359187E-1
1.283527664E0,3.418164849E-1,-2.376869470E-1,2.868222296E-1,5.055695655E-1
1.286036362E0,3.450122476E-1,-2.067943066E-1,2.495380044E-1,4.733566857E-1
1.288545060E0,3.439469934E-1,-1.727058738E-1,2.111885101E-1,4.390073347E-1
1.291053758E0,3.407512009E-1,-1.332911104E-1,1.696432382E-1,4.033072393E-1
1.293562456E0,3.386206925E-1,-9.494162351E-2,1.270326823E-1,3.739186912E-1
1.296071154E0,3.354249001E-1,-5.872265995E-2,8.335687965E-2,3.505803528E-1
1.298579852E0,3.322291076E-1,-2.569948509E-2,3.648528084E-2,3.352130952E-1
1.301088550E0,3.300985694E-1,3.062632866E-3,-7.190529723E-3,3.301910795E-1
1.303597248E0,3.290333152E-1,2.436790615E-2,-5.193160102E-2,3.339964199E-1
1.306105945E0,3.311638236E-1,4.141212255E-2,-9.667267650E-2,3.474622977E-1
1.308614643E0,3.343596160E-1,5.313002318E-2,-1.424790174E-1,3.673137931E-1
1.311123341E0,3.418164849E-1,6.165213138E-2,-1.808284968E-1,3.915845246E-1
1.313632039E0,3.524691164E-1,6.804371625E-2,-2.170474678E-1,4.194925848E-1
1.316140737E0,3.684480488E-1,7.230477035E-2,-2.479401082E-1,4.499513771E-1
1.318649435E0,3.886880577E-1,7.337003201E-2,-2.724411786E-1,4.802975781E-1
1.321158133E0,4.110586047E-1,7.976161689E-2,-2.894853950E-1,5.090509659E-1
1.323666831E0,4.376901984E-1,8.189214021E-2,-2.980075181E-1,5.358054808E-1
1.326175529E0,4.653870463E-1,8.615319431E-2,-2.990727723E-1,5.598678406E-1
1.328684227E0,4.941491783E-1,9.147951752E-2,-2.937464416E-1,5.820986896E-1
1.331192925E0,5.239765644E-1,9.680583328E-2,-2.841590643E-1,6.038784507E-1
1.333701623E0,5.516734123E-1,1.042626798E-1,-2.703106403E-1,6.231228631E-1
1.336210320E0,5.751091838E-1,1.127847880E-1,-2.532664239E-1,6.384472282E-1
1.338719018E0,5.985450149E-1,1.213068962E-1,-2.330264151E-1,6.536610804E-1
1.341227716E0,6.155892015E-1,1.287637353E-1,-2.138516754E-1,6.642760748E-1
1.343736414E0,6.273071170E-1,1.362205893E-1,-1.925463974E-1,6.701823507E-1
1.346245112E0,6.347639561E-1,1.436774284E-1,-1.712411344E-1,6.729725176E-1
1.348753810E0,6.347639561E-1,1.468732208E-1,-1.520663798E-1,6.690449961E-1
1.351262508E0,6.283723712E-1,1.511342824E-1,-1.307611167E-1,6.593875020E-1
1.353771206E0,6.166545153E-1,1.521995366E-1,-1.105211005E-1,6.447033456E-1
1.356279904E0,5.964145064E-1,1.521995366E-1,-9.028109163E-2,6.221138464E-1
1.358788602E0,5.719134212E-1,1.511342824E-1,-7.430213690E-2,5.961940457E-1
1.361297300E0,5.410207510E-1,1.490037590E-1,-5.512739345E-2,5.638657666E-1
1.363805998E0,5.048018098E-1,1.468732208E-1,-3.914843872E-2,5.271899187E-1
1.366314695E0,4.621912539E-1,1.447426975E-1,-2.316948399E-2,4.848793960E-1
1.368823393E0,4.174501896E-1,1.404816359E-1,-5.060002208E-3,4.404830921E-1
1.371332091E0,3.695133328E-1,1.372858584E-1,1.198421605E-2,3.943743545E-1
1.373840789E0,3.173153996E-1,1.319595277E-1,2.689790726E-2,3.447112955E-1
1.376349487E0,2.629869580E-1,1.255679578E-1,4.181159660E-2,2.944107025E-1
1.378858185E0,2.075932473E-1,1.181111038E-1,5.566002429E-2,2.452411618E-1
1.381366883E0,1.511342824E-1,1.095889956E-1,6.631266326E-2,1.981128178E-1
1.383875581E0,9.254477918E-2,9.893636405E-2,7.590003312E-2,1.552860435E-1
1.386384279E0,3.289001435E-2,8.189214021E-2,8.335687965E-2,1.213937604E-1
1.388892977E0,-2.889527567E-2,6.058686972E-2,8.868319541E-2,1.112223668E-1
1.391401675E0,-9.281109273E-2,3.502054140E-2,8.974846452E-2,1.337726584E-1
1.393910373E0,-1.577921808E-1,4.127896391E-3,8.868319541E-2,1.810528127E-1
1.396419070E0,-2.249037921E-1,-3.102580272E-2,8.335687965E-2,2.418526112E-1
1.398927768E0,-2.909501195E-1,-7.789740711E-2,7.696529478E-2,3.108755936E-1
1.401436466E0,-3.591270149E-1,-1.332911104E-1,6.737792492E-2,3.889453917E-1
1.403945164E0,-4.230428338E-1,-2.004027218E-1,5.459476262E-2,4.712823763E-1
1.406453862E0,-4.858933687E-1,-2.781669796E-1,3.755054250E-2,5.611410496E-1
1.408962560E0,-5.466133952E-1,-3.655185997E-1,1.837579720E-2,6.578204318E-1
1.411471258E0,-6.062681675E-1,-4.613923132E-1,-2.929474926E-3,7.618743594E-1
1.413979956E0,-6.669881940E-1,-5.647228956E-1,-2.530001104E-2,8.743141828E-1
1.416488654E0,-7.287734747E-1,-6.744450331E-1,-5.086633936E-2,9.942707199E-1
1.418997352E0,-7.905587554E-1,-7.884282470E-1,-7.643266767E-2,1.119126534E0
1.421506050E0,-8.512787819E-1,-9.034767151E-1,-1.030642539E-1,1.245619516E0
1.424014748E0,-9.109335542E-1,-1.020655751E0,-1.328916401E-1,1.374481099E0
1.426523445E0,-9.737841487E-1,-1.133573651E0,-1.627190262E-1,1.503237264E0
1.429032143E0,-1.034504175E0,-1.237969518E0,-1.936116666E-1,1.624885501E0
1.431540841E0,-1.095224142E0,-1.333843231E0,-2.266348451E-1,1.740694413E0
1.434049539E0,-1.153813720E0,-1.415868521E0,-2.564622164E-1,1.844381370E0
1.436558237E0,-1.210272670E0,-1.482980132E0,-2.852243483E-1,1.935288851E0
1.439066935E0,-1.264601111E0,-1.529851794E0,-3.118559420E-1,2.009207956E0
1.441575633E0,-1.316799045E0,-1.554352760E0,-3.320959508E-1,2.064039716E0
1.444084331E0,-1.365801096E0,-1.556483388E0,-3.491401672E-1,2.099988578E0
1.446593029E0,-1.410542250E0,-1.536243320E0,-3.608580530E-1,2.116575420E0
1.449101727E0,-1.446761131E0,-1.489371777E0,-3.640538454E-1,2.108051532E0
1.451610425E0,-1.467001200E0,-1.414803267E0,-3.587275445E-1,2.069407223E0
1.454119123E0,-1.469131708E0,-1.309342146E0,-3.448790908E-1,1.997915518E0
1.456627820E0,-1.440369606E0,-1.168727398E0,-3.214432895E-1,1.882528651E0
1.459136518E0,-1.366866350E0,-9.940241575E-1,-2.884201407E-1,1.714524372E0
1.461645216E0,-1.249687433E0,-7.990809083E-1,-2.468748540E-1,1.503727426E0
1.464153914E0,-1.111203194E0,-5.892239809E-1,-1.989379823E-1,1.273394581E0
1.466662612E0,-9.599357247E-1,-3.676491082E-1,-1.488705873E-1,1.038655339E0
1.469171310E0,-7.916240692E-1,-1.482048035E-1,-9.560741484E-2,8.110327419E-1
1.471680008E0,-6.094639897E-1,7.017423958E-2,-4.660528526E-2,6.152583452E-1
1.474188706E0,-4.155859649E-1,2.832269669E-1,-5.060002208E-3,5.029461329E-1
1.476697404E0,-2.121206224E-1,4.866923392E-1,3.328948840E-2,5.319518601E-1
1.479206102E0,-2.263685223E-3,6.816355586E-1,6.737792492E-2,6.849612717E-1
1.481714800E0,2.118543088E-1,8.595346212E-1,9.720530361E-2,8.905789602E-1
1.484223498E0,4.217112362E-1,1.021454692E0,1.217063740E-1,1.111765486E0
1.486732195E0,6.251766086E-1,1.163134694E0,1.398158520E-1,1.327884250E0
1.489240893E0,8.190546036E-1,1.284574747E0,1.557948142E-1,1.531422459E0
1.491749591E0,9.958883524E-1,1.384709597E0,1.611211300E-1,1.713235038E0
1.494258289E0,1.148221016E0,1.460343242E0,1.632516533E-1,1.864849856E0
1.496766987E0,1.271791577E0,1.515737057E0,1.611211300E-1,1.985163132E0
1.499275685E0,1.361273766E0,1.549825430E0,1.515337527E-1,2.068329666E0
1.501784383E0,1.413471699E0,1.565804362E0,1.355548054E-1,2.113769299E0
1.504293081E0,1.428385377E0,1.562608600E0,1.174453199E-1,2.120335781E0
1.506801779E0,1.403884292E0,1.539172769E0,9.507478029E-2,2.085421571E0
1.509310477E0,1.344229579E0,1.497627497E0,6.631266326E-2,2.013514005E0
1.511819175E0,1.254747391E0,1.442233801E0,3.435475379E-2,1.911964853E0
1.514327873E0,1.145025253E0,1.378317952E0,3.462106921E-3,1.791885932E0
1.516836570E0,1.022519946E0,1.310141087E0,-2.849580161E-2,1.662175899E0
1.519345268E0,8.872314692E-1,1.241964221E0,-5.619265884E-2,1.527354714E0
1.521853966E0,7.476819158E-1,1.174852610E0,-7.856319100E-2,1.394804315E0
1.524362664E0,6.049365997E-1,1.108806252E0,-9.773793817E-2,1.266867120E0
1.526871362E0,4.632565379E-1,1.037433624E0,-1.126516312E-1,1.141737945E0
1.529380060E0,3.247722387E-1,9.554083347E-1,-1.243695319E-1,1.016734908E0
1.531888758E0,1.937448233E-1,8.627303839E-1,-1.360874325E-1,8.946287281E-1
1.534397456E0,7.123950869E-2,7.572692633E-1,-1.488705873E-1,7.750446803E-1
1.536906154E0,-3.741738573E-2,6.454166174E-1,-1.563274413E-1,6.651322723E-1
1.539414852E0,-1.332911104E-1,5.324986577E-1,-1.616537571E-1,5.722353342E-1
1.541923550E0,-2.163816839E-1,4.174501896E-1,-1.616537571E-1,4.972098462E-1
1.544432248E0,-2.888196111E-1,3.066627681E-1,-1.573926955E-1,4.497013250E-1
1.546940945E0,-3.474090993E-1,1.990711391E-1,-1.499358565E-1,4.275548641E-1
1.549449643E0,-3.942807019E-1,9.787109494E-2,-1.382179558E-1,4.291156329E-1
1.551958341E0,-4.304996729E-1,5.193160381E-3,-1.243695319E-1,4.481347094E-1
1.554467039E0,-4.550007284E-1,-7.896266878E-2,-1.073253155E-1,4.741091533E-1
1.556975737E0,-4.699144363E-1,-1.545963883E-1,-8.921582997E-2,5.026719458E-1
1.559484435E0,-4.763059914E-1,-2.185122073E-1,-7.217161357E-2,5.289836708E-1
1.561993133E0,-4.752407372E-1,-2.717753947E-1,-5.406212807E-2,5.501257467E-1
1.564501831E0,-4.656533599E-1,-3.143859208E-1,-3.595264629E-2,5.629956941E-1
1.567010529E0,-4.496744275E-1,-3.474090993E-1,-1.784316637E-2,5.685231320E-1
1.569519227E0,-4.294344187E-1,-3.740406930E-1,4.527370445E-3,5.695093126E-1
1.572027925E0,-4.059986174E-1,-3.964112401E-1,2.689790726E-2,5.680671140E-1
1.574536623E0,-3.783017397E-1,-4.113249183E-1,4.926844314E-2,5.610060375E-1
1.577045320E0,-3.495396376E-1,-4.230428338E-1,7.163897902E-2,5.534214856E-1
1.579554018E0,-3.207775056E-1,-4.294344187E-1,9.720530361E-2,5.447577435E-1
1.582062716E0,-2.920154035E-1,-4.336954653E-1,1.238368973E-1,5.373084121E-1
1.584571414E0,-2.632532716E-1,-4.347607195E-1,1.515337527E-1,5.303599216E-1
1.587080112E0,-2.344911546E-1,-4.326302111E-1,1.760348231E-1,5.226310937E-1
1.589588810E0,-2.067943066E-1,-4.304996729E-1,2.005358785E-1,5.179850309E-1
1.592097508E0,-1.812279820E-1,-4.326302111E-1,2.239716798E-1,5.197843730E-1
1.594606206E0,-1.599227041E-1,-4.411523044E-1,2.431464195E-1,5.284986360E-1
1.597114904E0,-1.396826953E-1,-4.592617750E-1,2.580601275E-1,5.450024429E-1
1.599623602E0,-1.237037405E-1,-4.858933687E-1,2.665822208E-1,5.678565502E-1
1.602132300E0,-1.109205782E-1,-5.221123695E-1,2.687127590E-1,5.975878579E-1
1.604640998E0,-1.002679393E-1,-5.647228956E-1,2.655169666E-1,6.320323315E-1
1.607149695E0,-9.281109273E-2,-6.137250066E-1,2.537990510E-1,6.705864903E-1
1.609658393E0,-8.961530030E-2,-6.669881940E-1,2.356895804E-1,7.130594164E-1
1.612167091E0,-8.961530030E-2,-7.213166356E-1,2.090579867E-1,7.563291827E-1
1.614675789E0,-9.494162351E-2,-7.788408995E-1,1.771000773E-1,8.043453835E-1
1.617184487E0,-1.023984700E-1,-8.352998495E-1,1.376853287E-1,8.527417751E-1
1.619693185E0,-1.141163707E-1,-8.906935453E-1,9.081372619E-2,9.025545250E-1
1.622201883E0,-1.300953180E-1,-9.428914785E-1,3.861580789E-2,9.526071135E-1
1.624710581E0,-1.514005959E-1,-9.876325727E-1,-1.784316637E-2,9.993290837E-1
1.627219279E0,-1.780321896E-1,-1.027047276E0,-7.749792933E-2,1.045240402E0
1.629727977E0,-2.099900991E-1,-1.059005260E0,-1.424790174E-1,1.088984965E0
1.632236675E0,-2.483395934E-1,-1.082440972E0,-2.106558830E-1,1.130365832E0
1.634745373E0,-2.909501195E-1,-1.097354650E0,-2.809632719E-1,1.169521082E0
1.637254070E0,-3.410175145E-1,-1.101615787E0,-3.491401672E-1,1.204885531E0
1.639762768E0,-3.964112401E-1,-1.099485278E0,-4.162517786E-1,1.240675337E0
1.642271466E0,-4.550007284E-1,-1.090963125E0,-4.822981060E-1,1.276650957E0
1.644780164E0,-5.199818015E-1,-1.073918939E0,-5.440834165E-1,1.311377034E0
1.647288862E0,-5.881586671E-1,-1.047287345E0,-6.026729345E-1,1.343858648E0
1.649797560E0,-6.595313549E-1,-1.006807327E0,-6.538055539E-1,1.369709569E0
1.652306258E0,-7.298387289E-1,-9.439567327E-1,-6.964160800E-1,1.381562246E0
1.654814956E0,-7.990809083E-1,-8.438219428E-1,-7.294392586E-1,1.372095988E0
1.657323654E0,-8.598009348E-1,-7.095987201E-1,-7.486140132E-1,1.342836897E0
1.659832352E0,-9.002809525E-1,-5.434176326E-1,-7.518098354E-1,1.292681920E0
1.662341050E0,-8.811061978E-1,-3.250385821E-1,-7.305045128E-1,1.189804629E0
1.664849748E0,-7.554050684E-1,-4.593949392E-2,-6.665887237E-1,1.008507700E0
1.667358445E0,-5.423523784E-1,2.736395895E-1,-5.579318404E-1,8.248106849E-1
1.669867143E0,-2.771016955E-1,6.187850237E-1,-4.205128253E-1,7.978165775E-1
1.672375841E0,3.502054140E-2,9.586040974E-1,-2.596580088E-1,9.937658353E-1
1.674884539E0,3.748396337E-1,1.277117968E0,-9.560741484E-2,1.334419661E0
1.677393237E0,7.178545594E-1,1.557282329E0,5.672528967E-2,1.715710109E0
1.679901935E0,1.045955777E0,1.790575027E0,1.877527237E-1,2.082170383E0
1.682410633E0,1.339968443E0,1.973800421E0,2.900180221E-1,2.403229906E0
1.684919331E0,1.579652786E0,2.103762627E0,3.645864725E-1,2.655944919E0
1.687428029E0,1.756486535E0,2.188983679E0,4.146538675E-1,2.837046408E0
1.689936727E0,1.864078164E0,2.241181612E0,4.476770461E-1,2.949253661E0
1.692445425E0,1.896036148E0,2.264617443E0,4.583296776E-1,2.988898013E0
1.694954123E0,1.855556130E0,2.261421442E0,4.498075843E-1,2.959635510E0
1.697462820E0,1.759682417E0,2.237985849E0,4.253064990E-1,2.878532350E0
1.699971518E0,1.629720211E0,2.194309950E0,3.848264813E-1,2.760267296E0
1.702480216E0,1.475257039E0,2.127198219E0,3.347590864E-1,2.610252716E0
1.704988914E0,1.297357917E0,2.045172930E0,2.772348523E-1,2.437771327E0
1.707497612E0,1.106675744E0,1.945038199E0,2.197106332E-1,2.248594575E0
1.710006310E0,9.117324948E-1,1.827859282E0,1.611211300E-1,2.048971868E0
1.712515008E0,7.199850678E-1,1.698962331E0,1.046621501E-1,1.848189835E0
1.715023706E0,5.367597342E-1,1.556217074E0,5.566002429E-2,1.647124960E0
1.717532404E0,3.663175404E-1,1.400688529E0,9.853689000E-3,1.447830788E0
1.720041102E0,2.054627240E-1,1.230246305E0,-3.382211924E-2,1.247743900E0
1.722549800E0,5.845634267E-2,1.049151540E0,-7.323687524E-2,1.053327934E0
1.725058498E0,-7.363634557E-2,8.627303839E-1,-1.051947847E-1,8.722338960E-1
1.727567195E0,-1.918806136E-1,6.720482111E-1,-1.286305785E-1,7.106425217E-1
1.730075893E0,-2.962764502E-1,4.813660085E-1,-1.467400640E-1,5.839739853E-1
1.732584591E0,-3.868238628E-1,2.874880135E-1,-1.573926955E-1,5.070054431E-1
1.735093289E0,-4.592617750E-1,8.934898674E-2,-1.627190262E-1,4.953605767E-1
1.737601987E0,-5.093291998E-1,-1.279647946E-1,-1.605884880E-1,5.491628947E-1
1.740110685E0,-5.306344628E-1,-3.761712313E-1,-1.488705873E-1,6.672632016E-1
1.742619383E0,-5.253081322E-1,-6.520745158E-1,-1.286305785E-1,8.471691883E-1
1.745128081E0,-4.986765385E-1,-9.514135718E-1,-1.051947847E-1,1.079320164E0
1.747636779E0,-4.571312666E-1,-1.250752687E0,-7.749792933E-2,1.333925489E0
1.750145477E0,-4.134554565E-1,-1.529851794E0,-5.193160102E-2,1.585587846E0
1.752654175E0,-3.719101548E-1,-1.778058171E0,-2.743053809E-2,1.816744467E0
1.755162873E0,-3.303648829E-1,-1.992176175E0,-5.060002208E-3,2.019389133E0
1.757671570E0,-2.888196111E-1,-2.173270941E0,2.050632425E-2,2.192474369E0
1.760180268E0,-2.472743243E-1,-2.326668978E0,4.074633494E-2,2.340126789E0
1.762688966E0,-2.057290375E-1,-2.452370167E0,6.098634377E-2,2.461739874E0
1.765197664E0,-1.652490199E-1,-2.549309015E0,8.122635633E-2,2.555950198E0
1.767706362E0,-1.268995255E-1,-2.610028982E0,9.827057272E-2,2.614959251E0
1.770215060E0,-9.068056941E-2,-2.636660576E0,1.131842583E-1,2.640646253E0
1.772723758E0,-5.765739456E-2,-2.629203796E0,1.259674281E-1,2.632851073E0
1.775232456E0,-2.676474862E-2,-2.586593390E0,1.344895363E-1,2.590225695E0
1.777741154E0,9.321057005E-4,-2.505633354E0,1.366200596E-1,2.509355378E0
1.780249852E0,2.862896025E-2,-2.389519453E0,1.387505829E-1,2.393715639E0
1.782758550E0,5.526055023E-2,-2.230795145E0,1.376853287E-1,2.235723140E0
1.785267248E0,8.508793265E-2,-2.040112972E0,1.334242672E-1,2.046241171E0
1.787775945E0,1.181111038E-1,-1.820668697E0,1.249021590E-1,1.828766056E0
1.790284643E0,1.532648057E-1,-1.578853846E0,1.131842583E-1,1.590308223E0
1.792793341E0,1.926795542E-1,-1.316799045E0,9.720530361E-2,1.334366518E0
1.795302039E0,2.342248410E-1,-1.044091582E0,8.016108721E-2,1.073039751E0
1.797810737E0,2.757701278E-1,-7.703187466E-1,5.885581672E-2,8.203073460E-1
1.800319435E0,3.130543530E-1,-5.050681233E-1,3.648528084E-2,5.953385699E-1
1.802828133E0,3.428817391E-1,-2.600574791E-1,1.198421605E-2,4.305129509E-1
1.805336831E0,3.609912097E-1,-4.700475931E-2,-1.358211134E-2,3.642918811E-1
1.807845529E0,3.673827946E-1,1.276984811E-1,-4.127896577E-2,3.911278216E-1
1.810354227E0,3.641870022E-1,2.619217038E-1,-7.430213690E-2,4.547042545E-1
1.812862925E0,3.482080400E-1,3.609912097E-1,-1.073253155E-1,5.129154082E-1
1.815371623E0,3.226417303E-1,4.323638678E-1,-1.403484792E-1,5.574351046E-1
1.817880320E0,2.874880135E-1,4.781702161E-1,-1.744369268E-1,5.845719416E-1
1.820389018E0,2.448774725E-1,5.101281404E-1,-2.095906287E-1,6.034268207E-1
1.822897716E0,2.022669315E-1,5.367597342E-1,-2.394180000E-1,6.215656864E-1
1.825406414E0,1.553953290E-1,5.612607598E-1,-2.649843395E-1,6.398265773E-1
1.827915112E0,1.074584723E-1,5.868270993E-1,-2.862896025E-1,6.617213192E-1
1.830423810E0,5.526055023E-2,6.091976166E-1,-3.033338189E-1,6.827787857E-1
1.832932508E0,1.997369342E-3,6.305029392E-1,-3.139864504E-1,7.043617231E-1
1.835441206E0,-5.446160212E-2,6.475471258E-1,-3.225085735E-1,7.254620088E-1
1.837949904E0,-1.151816323E-1,6.613955498E-1,-3.289001584E-1,7.475869153E-1
1.840458602E0,-1.780321896E-1,6.699176431E-1,-3.267696202E-1,7.663311906E-1
1.842967300E0,-2.462090552E-1,6.752439737E-1,-3.246390820E-1,7.886468515E-1
1.845475998E0,-3.175817132E-1,6.741787195E-1,-3.182475269E-1,8.103434943E-1
1.847984695E0,-3.942807019E-1,6.677871346E-1,-3.065296113E-1,8.338808858E-1
1.850493393E0,-4.773712754E-1,6.560692191E-1,-2.948117256E-1,8.632636378E-1
1.853002091E0,-5.647228956E-1,6.347639561E-1,-2.809632719E-1,8.948617708E-1
1.855510789E0,-6.574008465E-1,6.070671082E-1,-2.671148479E-1,9.338397554E-1
1.858019487E0,-7.532745600E-1,5.729786754E-1,-2.479401082E-1,9.783667116E-1
1.860528185E0,-8.512787819E-1,5.356944799E-1,-2.287653685E-1,1.031492964E0
1.863036883E0,-9.482178092E-1,4.930838943E-1,-2.095906287E-1,1.089117520E0
1.865545581E0,-1.046222091E0,4.462123215E-1,-1.904158741E-1,1.153232112E0
1.868054279E0,-1.141030550E0,3.950796425E-1,-1.701758653E-1,1.219425465E0
1.870562977E0,-1.229447365E0,3.354249001E-1,-1.510011256E-1,1.283297326E0
1.873071675E0,-1.307211637E0,2.693785429E-1,-1.318263710E-1,1.341173090E0
1.875580373E0,-1.370062232E0,1.926795542E-1,-1.126516312E-1,1.388123309E0
1.878089070E0,-1.415868521E0,1.063932031E-1,-9.241162241E-2,1.422864396E0
1.880597768E0,-1.439304352E0,1.371526904E-2,-7.217161357E-2,1.441177944E0
1.883106466E0,-1.427586436E0,-7.470161468E-2,-5.406212807E-2,1.430561455E0
1.885615164E0,-1.365801096E0,-1.503353268E-1,-4.021370411E-2,1.374638311E0
1.888123862E0,-1.251817942E0,-2.174469382E-1,-2.849580161E-2,1.270882898E0
1.890632560E0,-1.094158888E0,-2.621880174E-1,-1.784316637E-2,1.125275347E0
1.893141258E0,-8.885630369E-1,-2.888196111E-1,-8.255792782E-3,9.343603140E-1
1.895649956E0,-6.350302696E-1,-2.973417044E-1,-1.864211401E-3,7.011982657E-1
1.898158654E0,-3.356912136E-1,-2.877543271E-1,5.592633970E-3,4.421791732E-1
1.900667352E0,-2.263685223E-3,-2.653838098E-1,1.624527015E-2,2.658902021E-1
1.903176050E0,3.471427858E-1,-2.291648388E-1,3.009369783E-2,4.170494787E-1
1.905684748E0,6.922882199E-1,-1.876195520E-1,4.607265070E-2,7.187397059E-1
1.908193445E0,1.009736776E0,-1.375521719E-1,6.098634377E-2,1.020886033E0
1.910702143E0,1.280313730E0,-8.215846121E-2,7.270424068E-2,1.285005513E0
1.913210841E0,1.489105463E0,-2.250369452E-2,8.335687965E-2,1.491606471E0
1.915719539E0,1.626524448E0,4.141212255E-2,9.400951862E-2,1.629765178E0
1.918228237E0,1.691505551E0,1.138500497E-1,1.067926809E-1,1.698692892E0
1.920736935E0,1.689374924E0,1.926795542E-1,1.185105816E-1,1.704452346E0
1.923245633E0,1.625459194E0,2.757701278E-1,1.280979514E-1,1.653655297E0
1.925754331E0,1.514671683E0,3.695133328E-1,1.387505829E-1,1.565254655E0
1.928263029E0,1.366600037E0,4.760396779E-1,1.472726911E-1,1.454612897E0
1.930771727E0,1.195092678E0,5.889576077E-1,1.579253376E-1,1.341662396E0
1.933280425E0,1.008671522E0,7.040061355E-1,1.696432382E-1,1.241701134E0
1.935789123E0,8.169240355E-1,8.169240355E-1,1.802958697E-1,1.169288827E0
1.938297820E0,6.241113544E-1,9.127978086E-1,1.909485012E-1,1.122130185E0
1.940806518E0,4.323638678E-1,9.809746742E-1,1.994706094E-1,1.090430351E0
1.943315216E0,2.470080107E-1,1.025715709E0,2.090579867E-1,1.075551447E0
1.945823914E0,6.804371625E-2,1.053412557E0,2.133190483E-1,1.076946135E0
1.948332612E0,-9.920267761E-2,1.067260981E0,2.165148407E-1,1.093510790E0
1.950841310E0,-2.547311783E-1,1.069391489E0,2.207758874E-1,1.121261844E0
1.953350008E0,-3.964112401E-1,1.060869455E0,2.239716798E-1,1.154447567E0
1.955858706E0,-5.263733864E-1,1.045955777E0,2.292979956E-1,1.193176433E0
1.958367404E0,-6.414218545E-1,1.027846217E0,2.367548496E-1,1.234480741E0
1.960876102E0,-7.426218987E-1,1.006541014E0,2.463422120E-1,1.274871202E0
1.963384800E0,-8.310387731E-1,9.863009453E-1,2.559295893E-1,1.314882106E0
1.965893498E0,-9.045419693E-1,9.671262503E-1,2.708432674E-1,1.351623259E0
1.968402195E0,-9.652619958E-1,9.490167499E-1,2.889527678E-1,1.384144940E0
1.970910893E0,-1.012133598E0,9.309072495E-1,3.081275225E-1,1.409235714E0
1.973419591E0,-1.048352599E0,9.085367322E-1,3.315632939E-1,1.426329690E0
1.975928289E0,-1.072853684E0,8.755135536E-1,3.560643792E-1,1.429797487E0
1.978436987E0,-1.087767363E0,8.318377733E-1,3.784348965E-1,1.420705771E0
1.980945685E0,-1.090963125E0,7.743135095E-1,4.008054435E-1,1.396569710E0
1.983454383E0,-1.081375718E0,7.040061355E-1,4.178496599E-1,1.356317227E0
1.985963081E0,-1.060070515E0,6.230461001E-1,4.327633679E-1,1.303541358E0
1.988471779E0,-1.022786260E0,5.314334035E-1,4.391549230E-1,1.233438382E0
1.990980477E0,-9.705883265E-1,4.302333593E-1,4.402202070E-1,1.149319918E0
1.993489175E0,-9.066725373E-1,3.205111921E-1,4.316980839E-1,1.054108984E0
1.995997873E0,-8.299735188E-1,2.043974549E-1,4.114580750E-1,9.486475157E-1
1.998506570E0,-7.415566444E-1,8.402267098E-2,3.869570196E-1,8.406555782E-1
2.001015268E0,-6.424871087E-1,-3.954791278E-2,3.539338410E-1,7.345902845E-1
2.003523966E0,-5.338302255E-1,-1.652490199E-1,3.145190775E-1,6.412520552E-1
2.006032664E0,-4.166512489E-1,-2.888196111E-1,2.740390599E-1,5.762919723E-1
2.008541362E0,-2.952111959E-1,-4.059986174E-1,2.324937880E-1,5.532069134E-1
2.011050060E0,-1.695100814E-1,-5.189165473E-1,1.920137703E-1,5.786858723E-1
2.013558758E0,-4.274370521E-2,-6.233124137E-1,1.525990218E-1,6.431421700E-1
2.016067456E0,8.402267098E-2,-7.202513814E-1,1.153147891E-1,7.342474802E-1
2.018576154E0,2.097237855E-1,-8.065377474E-1,7.803056389E-2,8.370041655E-1
2.021084852E0,3.300985694E-1,-8.800409436E-1,4.181159660E-2,9.408428868E-1
2.023593550E0,4.462123215E-1,-9.396957159E-1,5.592633970E-3,1.040271480E0
2.026102248E0,5.527386665E-1,-9.855020046E-1,-3.062633052E-2,1.130341633E0
2.028610945E0,6.507429481E-1,-1.017459989E0,-6.897582114E-2,1.209730911E0
2.031119643E0,7.359640002E-1,-1.032373667E0,-1.083905771E-1,1.272472756E0
2.033628341E0,8.073366880E-1,-1.031308413E0,-1.456748098E-1,1.317805266E0
2.036137039E0,8.616651297E-1,-1.016394615E0,-1.829590350E-1,1.344990267E0
2.038645737E0,8.957535625E-1,-9.823062420E-1,-2.213085145E-1,1.347693384E0
2.041154435E0,9.117324948E-1,-9.322388172E-1,-2.543317080E-1,1.328536779E0
2.043663133E0,9.117324948E-1,-8.715187907E-1,-2.852243483E-1,1.293117966E0
2.046171831E0,8.936230540E-1,-7.980156541E-1,-3.107906580E-1,1.237732596E0
2.048680529E0,8.584693074E-1,-7.149250507E-1,-3.299654126E-1,1.164888215E0
2.051189227E0,8.084019423E-1,-6.297039986E-1,-3.448790908E-1,1.081194901E0
2.053697925E0,7.466166615E-1,-5.434176326E-1,-3.534012139E-1,9.887525376E-1
2.056206623E0,6.752439737E-1,-4.581965208E-1,-3.555317521E-1,8.901130841E-1
2.058715320E0,5.974797606E-1,-3.761712313E-1,-3.502054214E-1,7.881184536E-1
2.061224018E0,5.133239031E-1,-3.016027808E-1,-3.406180441E-1,6.859200528E-1
2.063732716E0,4.281028211E-1,-2.312953621E-1,-3.214432895E-1,5.831769529E-1
2.066241414E0,3.428817391E-1,-1.727058738E-1,-2.958769798E-1,4.847044389E-1
2.068750112E0,2.597911656E-1,-1.247690022E-1,-2.649843395E-1,3.915040917E-1
2.071258810E0,1.820269227E-1,-8.641951531E-2,-2.287653685E-1,3.048536157E-1
2.073767508E0,1.138500497E-1,-6.085318699E-2,-1.904158741E-1,2.300503191E-1
2.076276206E0,5.419528857E-2,-4.913528636E-2,-1.531316489E-1,1.697077121E-1
2.078784904E0,8.388951421E-3,-5.126581341E-2,-1.137168929E-1,1.250203578E-1
2.081293602E0,-2.676474862E-2,-6.191844866E-2,-7.643266767E-2,1.019421343E-1
2.083802300E0,-4.700475931E-2,-8.215846121E-2,-4.234423116E-2,1.036942335E-1
2.086310998E0,-5.446160212E-2,-1.077247858E-1,-1.251684781E-2,1.213563639E-1
2.088819695E0,-5.020054802E-2,-1.386174262E-1,1.411474310E-2,1.481016942E-1
2.091328393E0,-3.315633163E-2,-1.716406047E-1,3.648528084E-2,1.785805567E-1
2.093837091E0,-7.590003312E-3,-2.067943066E-1,5.672528967E-2,2.145675928E-1
2.096345789E0,2.543316968E-2,-2.376869470E-1,7.163897902E-2,2.495477393E-1
2.098854487E0,6.484792382E-2,-2.653838098E-1,8.548741043E-2,2.862549861E-1
2.101363185E0,1.074584723E-1,-2.866890728E-1,9.614004195E-2,3.209063032E-1
2.103871883E0,1.500690132E-1,-3.026680350E-1,1.046621501E-1,3.536704877E-1
2.106380581E0,1.905490309E-1,-3.111901283E-1,1.089232042E-1,3.808050598E-1
2.108889279E0,2.288985252E-1,-3.122554123E-1,1.131842583E-1,4.033716075E-1
2.111397977E0,2.651174963E-1,-3.090596199E-1,1.153147891E-1,4.232051938E-1
2.113906675E0,2.970753908E-1,-2.984069884E-1,1.153147891E-1,4.365753304E-1
2.116415320E0,3.226417303E-1,-2.834932804E-1,1.163800508E-1,4.449836428E-1
2.118923966E0,3.439469934E-1,-2.632532716E-1,1.142495275E-1,4.479450566E-1
2.121432612E0,3.567301631E-1,-2.387522161E-1,1.110537350E-1,4.433869213E-1
2.123941258E0,3.631217480E-1,-2.089248300E-1,1.046621501E-1,4.318114798E-1
2.126449904E0,3.620564938E-1,-1.897500902E-1,9.827057272E-2,4.204130194E-1
2.128958550E0,3.545996249E-1,-1.769669205E-1,8.868319541E-2,4.061069983E-1
2.131467195E0,3.407512009E-1,-1.684448123E-1,7.909582555E-2,3.882540217E-1
2.133975841E0,3.215764761E-1,-1.556616426E-1,6.737792492E-2,3.635680978E-1
2.136484487E0,2.970753908E-1,-1.375521719E-1,5.566002429E-2,3.320729229E-1
2.138993133E0,2.683132887E-1,-1.151816323E-1,4.713791609E-2,2.957715545E-1
2.141501779E0,2.374206334E-1,-8.322372288E-2,3.861580789E-2,2.545307955E-1
2.144010425E0,2.054627240E-1,-4.487423226E-2,3.115896136E-2,2.126017604E-1
2.146519070E0,1.724395454E-1,-3.328948980E-3,2.583264373E-2,1.743955395E-1
2.149027716E0,1.372858584E-1,4.673844203E-2,2.157158963E-2,1.466193110E-1
2.151536362E0,1.010668874E-1,1.010668874E-1,1.731053367E-2,1.439746020E-1
2.154045008E0,6.484792382E-2,1.607216448E-1,1.304947957E-2,1.738015801E-1
2.156553654E0,3.182475269E-2,2.225069404E-1,8.788425475E-3,2.249430813E-1
2.159062300E0,-1.198421582E-3,2.864227593E-1,5.592633970E-3,2.864798611E-1
2.161570945E0,-3.315633163E-2,3.514038324E-1,2.396843163E-3,3.529727194E-1
2.164079591E0,-6.404897571E-2,4.185154438E-1,-7.989477599E-4,4.233888122E-1
2.166588237E0,-9.068056941E-2,4.866923392E-1,-3.994738683E-3,4.950841915E-1
2.169096883E0,-1.141163707E-1,5.580649972E-1,-8.255792782E-3,5.696729283E-1
2.171605529E0,-1.343563795E-1,6.294376254E-1,-1.251684781E-2,6.437391028E-1
2.174114175E0,-1.524658650E-1,7.040061355E-1,-1.677790284E-2,7.205220169E-1
2.176622820E0,-1.663142890E-1,7.764440179E-1,-1.784316637E-2,7.942569699E-1
2.179131466E0,-1.759016514E-1,8.467514515E-1,-1.997369342E-2,8.650597436E-1
2.181640164E0,-1.833585054E-1,9.106672406E-1,-2.210422046E-2,9.292059843E-1
2.184148862E0,-1.876195520E-1,9.660609365E-1,-2.316948399E-2,9.843838958E-1
2.186657560E0,-1.897500902E-1,1.011867285E0,-2.636527456E-2,1.029842525E0
2.189166258E0,-1.886848211E-1,1.047021031E0,-2.956106514E-2,1.064297354E0
2.191674956E0,-1.854890287E-1,1.070456743E0,-3.382211924E-2,1.086935028E0
2.194183654E0,-1.780321896E-1,1.081109405E0,-3.808317333E-2,1.096331762E0
2.196692352E0,-1.695100814E-1,1.080044150E0,-4.340949282E-2,1.094126784E0
2.199201050E0,-1.599227041E-1,1.067260981E0,-4.767054692E-2,1.080228565E0
2.201709748E0,-1.471395344E-1,1.042759895E0,-5.512739345E-2,1.054531778E0
2.204218445E0,-1.332911104E-1,1.006541014E0,-5.938844755E-2,1.017063577E0
2.206727143E0,-1.183774248E-1,9.596694112E-1,-6.684529036E-2,9.692506829E-1
2.209235841E0,-1.013332009E-1,9.021451473E-1,-7.430213690E-2,9.108540454E-1
2.211744539E0,-8.215846121E-2,8.318377733E-1,-8.069372177E-2,8.397711418E-1
2.214253237E0,-6.404897571E-2,7.530082464E-1,-8.815056831E-2,7.608509796E-1
2.216761935E0,-4.593949392E-2,6.635261178E-1,-9.454214573E-2,6.718002407E-1
2.219270633E0,-2.676474862E-2,5.665870905E-1,-1.009337306E-1,5.761292397E-1
2.221779331E0,-8.655266836E-3,4.632565379E-1,-1.083905771E-1,4.758466673E-1
2.224288029E0,8.388951421E-3,3.545996249E-1,-1.158474237E-1,3.731379022E-1
2.226796727E0,2.330264263E-2,2.374206334E-1,-1.233042628E-1,2.685433141E-1
2.229305425E0,3.502054140E-2,1.181111038E-1,-1.296958476E-1,1.788789648E-1
2.231814123E0,4.460791498E-2,-8.655266836E-3,-1.371526867E-1,1.444840448E-1
2.234322820E0,5.206476152E-2,-1.354216337E-1,-1.446095407E-1,2.048454967E-1
2.236831518E0,5.526055023E-2,-2.632532716E-1,-1.520663798E-1,3.089987011E-1
2.239340216E0,5.526055023E-2,-3.921501637E-1,-1.616537571E-1,4.277469070E-1
2.241848914E0,5.206476152E-2,-5.189165473E-1,-1.701758653E-1,5.485844945E-1
2.244357612E0,4.247738793E-2,-6.435524225E-1,-1.786979735E-1,6.692510850E-1
2.246866310E0,2.862896025E-2,-7.671229839E-1,-1.882853508E-1,7.904104397E-1
2.249375008E0,9.454214945E-3,-8.843019605E-1,-1.957421899E-1,9.057562279E-1
2.251883706E0,-1.291632187E-2,-9.982851744E-1,-2.042642981E-1,1.019050550E0
2.254392404E0,-4.061317816E-2,-1.110137820E0,-2.127864063E-1,1.131076242E0
2.256901102E0,-7.257108390E-2,-1.220925331E0,-2.202432603E-1,1.242751914E0
2.259409800E0,-1.109205782E-1,-1.325321078E0,-2.277000993E-1,1.349305996E0
2.261918498E0,-1.524658650E-1,-1.426521182E0,-2.362222075E-1,1.453963361E0
2.264427195E0,-1.993374527E-1,-1.523460150E0,-2.447443157E-1,1.555816836E0
2.266935893E0,-2.483395934E-1,-1.611877084E0,-2.511359155E-1,1.650118037E0
2.269444591E0,-3.005374968E-1,-1.693902373E0,-2.564622164E-1,1.739367962E0
2.271953289E0,-3.580617309E-1,-1.765275002E0,-2.596580088E-1,1.819842388E0
2.274461987E0,-4.145207107E-1,-1.818538189E0,-2.596580088E-1,1.883170424E0
2.276970685E0,-4.709796906E-1,-1.861148715E0,-2.596580088E-1,1.937296748E0
2.279479383E0,-5.285038948E-1,-1.893106699E0,-2.553969622E-1,1.982018403E0
2.281988081E0,-5.849629045E-1,-1.915477157E0,-2.522011697E-1,2.018623236E0
2.284496779E0,-6.424871087E-1,-1.925064564E0,-2.458095849E-1,2.044281197E0
2.287005477E0,-6.978808641E-1,-1.925064564E0,-2.372874767E-1,2.061362807E0
2.289514175E0,-7.500787377E-1,-1.913346648E0,-2.287653685E-1,2.067812154E0
2.292022873E0,-7.948198318E-1,-1.886715055E0,-2.191779912E-1,2.058997633E0
2.294531570E0,-8.310387731E-1,-1.841974020E0,-2.095906287E-1,2.031605760E0
2.297040268E0,-8.512787819E-1,-1.778058171E0,-1.989379823E-1,1.981348719E0
2.299548966E0,-8.470177650E-1,-1.690706611E0,-1.882853508E-1,1.900362942E0
2.302057664E0,-8.129293323E-1,-1.578853846E0,-1.755021811E-1,1.784498411E0
2.304566362E0,-7.500787377E-1,-1.442500114E0,-1.627190262E-1,1.633983529E0
2.307075060E0,-6.605966091E-1,-1.284841061E0,-1.499358565E-1,1.452475539E0
2.309583758E0,-5.498092175E-1,-1.105876803E0,-1.371526867E-1,1.242603935E0
2.312092456E0,-4.177165031E-1,-9.141293764E-1,-1.201084778E-1,1.012198419E0
2.314601154E0,-2.707101107E-1,-7.095987201E-1,-1.051947847E-1,7.667334936E-1
2.317109852E0,-1.098553166E-1,-4.965460002E-1,-8.602003753E-2,5.157766646E-1
2.319618550E0,5.526055023E-2,-2.771016955E-1,-6.578002870E-2,2.901139263E-1
2.322127248E0,2.203764170E-1,-5.872265995E-2,-4.234423116E-2,2.319636823E-1
2.324635945E0,3.769701719E-1,1.564605981E-1,-2.103895694E-2,4.086918974E-1
2.327144643E0,5.197154880E-1,3.684480488E-1,1.331579522E-3,6.370713667E-1
2.329653341E0,6.443513632E-1,5.719134212E-1,2.050632425E-2,8.617970468E-1
2.332162039E0,7.476819158E-1,7.700524330E-1,3.755054250E-2,1.073973482E0
2.334670737E0,8.286419511E-1,9.575388432E-1,5.246423557E-2,1.267391264E0
2.337179435E0,8.840356469E-1,1.136503100E0,6.737792492E-2,1.441422251E0
2.339688133E0,9.149283171E-1,1.305880070E0,8.016108721E-2,1.596509437E0
2.342196831E0,9.223851562E-1,1.465669632E0,8.974846452E-2,1.734080919E0
2.344705529E0,9.117324948E-1,1.616937041E0,9.827057272E-2,1.858870260E0
2.347214227E0,8.797746301E-1,1.755421281E0,1.035968885E-1,1.966275563E0
2.349722925E0,8.329030275E-1,1.880057216E0,1.099884734E-1,2.059232879E0
2.352231623E0,7.764440179E-1,1.991909862E0,1.121189967E-1,2.140827148E0
2.354740320E0,7.114629745E-1,2.088848829E0,1.142495275E-1,2.209642946E0
2.357249018E0,6.411555409E-1,2.171939373E0,1.153147891E-1,2.267531382E0
2.359757716E0,5.697829127E-1,2.239051104E0,1.153147891E-1,2.313287685E0
2.362266414E0,5.016059875E-1,2.289118290E0,1.142495275E-1,2.346214838E0
2.364775112E0,4.323638678E-1,2.322141647E0,1.121189967E-1,2.364709499E0
2.367283810E0,3.663175404E-1,2.341316223E0,1.121189967E-1,2.372450393E0
2.369792508E0,3.002711833E-1,2.343446970E0,1.121189967E-1,2.365264711E0
2.372301206E0,2.363553643E-1,2.332794189E0,1.131842583E-1,2.347467415E0
2.374809904E0,1.777658761E-1,2.311488867E0,1.142495275E-1,2.321127838E0
2.377318602E0,1.191763729E-1,2.278465748E0,1.163800508E-1,2.284546670E0
2.379827300E0,6.697845459E-2,2.229463577E0,1.206411049E-1,2.233729669E0
2.382335998E0,2.117211558E-2,2.166613102E0,1.249021590E-1,2.170313604E0
2.384844695E0,-2.037316747E-2,2.088848829E0,1.323590130E-1,2.093137216E0
2.387353393E0,-5.978792161E-2,2.001497269E0,1.387505829E-1,2.007191480E0
2.389862091E0,-9.174583107E-2,1.903492928E0,1.451421678E-1,1.911221827E0
2.392370789E0,-1.173121557E-1,1.793770790E0,1.515337527E-1,1.803978455E0
2.394879487E0,-1.407479644E-1,1.675526500E0,1.568600684E-1,1.688728552E0
2.397388185E0,-1.577921808E-1,1.551955938E0,1.643169224E-1,1.568587153E0
2.399896883E0,-1.705753356E-1,1.423059106E0,1.685779691E-1,1.443125669E0
2.402405581E0,-1.801627129E-1,1.287770629E0,1.717737615E-1,1.311608944E0
2.404914279E0,-1.844237745E-1,1.150351524E0,1.760348231E-1,1.178265258E0
2.407422977E0,-1.844237745E-1,1.009736776E0,1.781653464E-1,1.041788547E0
2.409931675E0,-1.833585054E-1,8.712524772E-1,1.781653464E-1,9.079890479E-1
2.412440373E0,-1.790974438E-1,7.338334918E-1,1.771000773E-1,7.758556086E-1
2.414949070E0,-1.727058738E-1,5.985450149E-1,1.728390306E-1,6.464957727E-1
2.417457768E0,-1.641837656E-1,4.621912539E-1,1.653821766E-1,5.176179367E-1
2.419966466E0,-1.535311192E-1,3.279680312E-1,1.568600684E-1,3.946389681E-1
2.422475164E0,-1.407479644E-1,1.958753467E-1,1.451421678E-1,2.815020245E-1
2.424983862E0,-1.290300637E-1,7.017423958E-2,1.312937438E-1,1.970056558E-1
2.427492560E0,-1.151816323E-1,-5.339634046E-2,1.131842583E-1,1.700842554E-1
2.430001258E0,-1.013332009E-1,-1.705753356E-1,9.294424951E-2,2.190958609E-1
2.432509956E0,-8.855003864E-2,-2.824280262E-1,7.057371736E-2,3.042816933E-1
2.435018654E0,-7.789740711E-2,-3.857586086E-1,4.713791609E-2,3.963580367E-1
2.437527352E0,-6.617950648E-2,-4.826975763E-1,2.263685316E-2,4.877387665E-1
2.440036050E0,-5.872265995E-2,-5.721797347E-1,-1.864211401E-3,5.751882082E-1
2.442544748E0,-5.339634046E-2,-6.563355327E-1,-2.849580161E-2,6.591202556E-1
2.445053445E0,-5.020054802E-2,-7.340998054E-1,-5.406212807E-2,7.377976233E-1
2.447562143E0,-5.020054802E-2,-8.033419251E-1,-7.856319100E-2,8.087338986E-1
2.450070841E0,-5.659212917E-2,-8.651272058E-1,-1.041295230E-1,8.732071398E-1
2.452579539E0,-6.617950648E-2,-9.237167239E-1,-1.254348010E-1,9.345406371E-1
2.455088237E0,-8.215846121E-2,-9.727188349E-1,-1.488705873E-1,9.874686811E-1
2.457596935E0,-1.023984700E-1,-1.018525243E0,-1.691105962E-1,1.037534342E0
2.460105633E0,-1.258342713E-1,-1.060070515E0,-1.893506050E-1,1.084175914E0
2.462614331E0,-1.545963883E-1,-1.098420024E0,-2.063948363E-1,1.128284282E0
2.465123029E0,-1.876195520E-1,-1.133573651E0,-2.223737836E-1,1.170316376E0
2.467631727E0,-2.270343155E-1,-1.168727398E0,-2.362222075E-1,1.213783029E0
2.470140425E0,-2.696448565E-1,-1.202815771E0,-2.490053773E-1,1.257568211E0
2.472649123E0,-3.165164590E-1,-1.236904263E0,-2.607232630E-1,1.303108378E0
2.475157820E0,-3.665838540E-1,-1.273123264E0,-2.713759243E-1,1.352357741E0
2.477666518E0,-4.209122956E-1,-1.311472654E0,-2.798980176E-1,1.405514349E0
2.480175216E0,-4.763059914E-1,-1.351952672E0,-2.873548567E-1,1.461922104E0
2.482683914E0,-5.348954797E-1,-1.395628572E0,-2.937464416E-1,1.523213464E0
2.485192612E0,-5.945502520E-1,-1.442500114E0,-2.990727723E-1,1.588628687E0
2.487701310E0,-6.574008465E-1,-1.491502285E0,-3.043990731E-1,1.658135620E0
2.490210008E0,-7.181208730E-1,-1.544765472E0,-3.065296113E-1,1.730883692E0
2.492718706E0,-7.799061537E-1,-1.600159168E0,-3.086601496E-1,1.806663793E0
2.495227404E0,-8.406261802E-1,-1.658748627E0,-3.097254038E-1,1.885213305E0
2.497736102E0,-9.002809525E-1,-1.720533967E0,-3.107906580E-1,1.966553777E0
2.500244800E0,-9.588704109E-1,-1.782319188E0,-3.107906580E-1,2.047604695E0
2.502753498E0,-1.012133598E0,-1.844104528E0,-3.097254038E-1,2.126279793E0
2.505262195E0,-1.062201023E0,-1.903759241E0,-3.065296113E-1,2.201483742E0
2.507770893E0,-1.101615787E0,-1.955957174E0,-3.022685647E-1,2.265103109E0
2.510279591E0,-1.123986244E0,-1.994306684E0,-2.937464416E-1,2.308005892E0
2.512788289E0,-1.111203194E0,-1.998567700E0,-2.798980176E-1,2.303776962E0
2.515296987E0,-1.018525243E0,-1.945304513E0,-2.585927546E-1,2.210989265E0
2.517805685E0,-8.342345953E-1,-1.837712884E0,-2.287653685E-1,2.031125205E0
2.520314383E0,-5.817670822E-1,-1.675792813E0,-1.925463974E-1,1.784323011E0
2.522823081E0,-2.728406489E-1,-1.469131708E0,-1.435442716E-1,1.501131225E0
2.525331779E0,7.443529367E-2,-1.237969518E0,-9.241162241E-2,1.243643457E0
2.527840477E0,4.355596602E-1,-9.929588437E-1,-4.340949282E-2,1.085156149E0
2.530349175E0,7.870966792E-1,-7.479482293E-1,2.663159103E-4,1.085793630E0
2.532857873E0,1.103479981E0,-5.050681233E-1,3.648528084E-2,1.214122339E0
2.535366570E0,1.368730664E0,-2.664490640E-1,6.844318658E-2,1.396102863E0
2.537875268E0,1.571130753E0,-3.528685868E-2,9.720530361E-2,1.574530367E0
2.540383966E0,1.703223348E0,1.905490309E-1,1.238368973E-1,1.718317282E0
2.542892664E0,1.768204451E0,4.089280665E-1,1.494032294E-1,1.821013583E0
2.545401362E0,1.772465587E0,6.198502779E-1,1.728390306E-1,1.885662206E0
2.547910060E0,1.722398162E0,8.190546036E-1,1.920137703E-1,1.916865973E0
2.550418758E0,1.625459194E0,1.006541014E0,2.047969401E-1,1.922806332E0
2.552927456E0,1.493366480E0,1.181244254E0,2.122537792E-1,1.915863538E0
2.555436154E0,1.336772680E0,1.339968443E0,2.133190483E-1,1.904726133E0
2.557944852E0,1.169526339E0,1.474191666E0,2.090579867E-1,1.893340478E0
2.560453550E0,9.980188608E-1,1.584979177E0,2.016011477E-1,1.883837482E0
2.562962248E0,8.275766969E-1,1.670200229E0,1.909485012E-1,1.873743132E0
2.565470945E0,6.624608040E-1,1.729854941E0,1.802958697E-1,1.861117685E0
2.567979643E0,5.026713014E-1,1.763943434E0,1.707084924E-1,1.842095618E0
2.570488341E0,3.482080400E-1,1.774596095E0,1.621863842E-1,1.815693962E0
2.572997039E0,2.022669315E-1,1.765008688E0,1.579253376E-1,1.783566089E0
2.575505737E0,6.271740049E-2,1.739442348E0,1.547295451E-1,1.747436519E0
2.578014435E0,-6.617950648E-2,1.697897077E0,1.536642760E-1,1.706120429E0
2.580523133E0,-1.897500902E-1,1.638242364E0,1.557948142E-1,1.656537100E0
2.583031831E0,-3.047985733E-1,1.560478091E0,1.568600684E-1,1.597685552E0
2.585540529E0,-4.091944098E-1,1.468865395E0,1.600558609E-1,1.533174319E0
2.588049227E0,-5.029376149E-1,1.365534782E0,1.653821766E-1,1.464575963E0
2.590557925E0,-5.828323960E-1,1.253682137E0,1.717737615E-1,1.393168592E0
2.593066623E0,-6.510092616E-1,1.136503100E0,1.802958697E-1,1.322103989E0
2.595575320E0,-7.053377032E-1,1.017193675E0,1.877527237E-1,1.251972577E0
2.598084018E0,-7.426218987E-1,8.957535625E-1,1.952095628E-1,1.179817148E0
2.600592716E0,-7.607313991E-1,7.743135095E-1,2.016011477E-1,1.104045604E0
2.603101414E0,-7.607313991E-1,6.560692191E-1,2.037316710E-1,1.025010086E0
2.605610112E0,-7.415566444E-1,5.399554968E-1,2.047969401E-1,9.398936015E-1
2.608118810E0,-7.021418810E-1,4.259723127E-1,2.047969401E-1,8.464026340E-1
2.610627508E0,-6.467481852E-1,3.183806837E-1,2.016011477E-1,7.485268849E-1
2.613136206E0,-5.796365738E-1,2.193111479E-1,1.984053552E-1,6.507231533E-1
2.615644904E0,-5.008070469E-1,1.308942735E-1,1.973400861E-1,5.539712255E-1
2.618153602E0,-4.123901725E-1,5.952160433E-2,1.973400861E-1,4.610331716E-1
2.620662300E0,-3.165164590E-1,6.258423906E-3,2.005358785E-1,3.747485494E-1
2.623170998E0,-2.195774615E-1,-2.783001214E-2,2.058621943E-1,3.022714247E-1
2.625679695E0,-1.194426864E-1,-4.487423226E-2,2.111885101E-1,2.467404281E-1
2.628188393E0,-2.143843099E-2,-4.487423226E-2,2.154495716E-1,2.211149496E-1
2.630697091E0,7.443529367E-2,-2.783001214E-2,2.207758874E-1,2.346425259E-1
2.633205789E0,1.649827063E-1,1.997369342E-3,2.261022031E-1,2.799026422E-1
2.635714487E0,2.480732650E-1,4.247738793E-2,2.292979956E-1,3.404735585E-1
2.638223185E0,3.237069845E-1,9.041424841E-2,2.292979956E-1,4.068642512E-1
2.640731883E0,3.929491341E-1,1.436774284E-1,2.261022031E-1,4.755779975E-1
2.643240581E0,4.504733682E-1,2.012016773E-1,2.218411565E-1,5.409453476E-1
2.645749279E0,5.005407333E-1,2.619217038E-1,2.133190483E-1,6.038617565E-1
2.648257977E0,5.410207510E-1,3.226417303E-1,2.016011477E-1,6.613956168E-1
2.650766675E0,5.719134212E-1,3.844270110E-1,1.866874546E-1,7.139476828E-1
2.653275373E0,5.921534300E-1,4.483428299E-1,1.685779691E-1,7.616268834E-1
2.655784070E0,6.028060913E-1,5.079975724E-1,1.462074369E-1,8.017564043E-1
2.658292768E0,6.038713455E-1,5.644565821E-1,1.227716357E-1,8.356702158E-1
2.660801466E0,5.964145064E-1,6.187850237E-1,9.187898785E-2,8.643187592E-1
2.663310164E0,5.793702602E-1,6.656566262E-1,5.885581672E-2,8.844391724E-1
2.665818862E0,5.559344888E-1,7.050713897E-1,2.370211668E-2,8.981929696E-1
2.668327560E0,5.207807422E-1,7.359640002E-1,-1.464737486E-2,9.017040183E-1
2.670836258E0,4.792354703E-1,7.519429922E-1,-5.406212807E-2,8.933127186E-1
2.673344956E0,4.291680753E-1,7.572692633E-1,-9.347688407E-2,8.754312662E-1
2.675853654E0,3.737743795E-1,7.455514073E-1,-1.339569092E-1,8.446884877E-1
2.678362352E0,3.119890988E-1,7.178545594E-1,-1.744369268E-1,8.019230684E-1
2.680871050E0,2.448774725E-1,6.741787195E-1,-2.106558830E-1,7.475679390E-1
2.683379748E0,1.724395454E-1,6.155892015E-1,-2.458095849E-1,6.849144573E-1
2.685888445E0,9.467530251E-2,5.399554968E-1,-2.777675092E-1,6.145487292E-1
2.688397143E0,1.265000552E-2,4.504733682E-1,-3.075948656E-1,5.456197205E-1
2.690905841E0,-7.150582224E-2,3.471427858E-1,-3.342264593E-1,4.871637532E-1
2.693414539E0,-1.577921808E-1,2.288985252E-1,-3.565970063E-1,4.521662660E-1
2.695923237E0,-2.451438010E-1,9.893636405E-2,-3.757717609E-1,4.594434716E-1
2.698431935E0,-3.367564678E-1,-4.274370521E-2,-3.906854391E-1,5.175587457E-1
2.700940633E0,-4.251733422E-1,-1.908153445E-1,-4.034686089E-1,6.164168922E-1
2.703449331E0,-5.125249624E-1,-3.484743834E-1,-4.119907022E-1,7.442127193E-1
2.705958029E0,-5.977460742E-1,-5.103944540E-1,-4.162517786E-1,8.894202669E-1
2.708466727E0,-6.808366179E-1,-6.723145247E-1,-4.141212404E-1,1.042612930E0
2.710975425E0,-7.586008906E-1,-8.374303579E-1,-4.087949097E-1,1.201614828E0
2.713484123E0,-8.299735188E-1,-1.002546191E0,-4.024033546E-1,1.362308103E0
2.715992820E0,-8.981503844E-1,-1.166596889E0,-3.938812315E-1,1.524061954E0
2.718501518E0,-9.578051567E-1,-1.326386333E0,-3.810980618E-1,1.679859266E0
2.721010216E0,-1.010003090E0,-1.482980132E0,-3.640538454E-1,1.830811710E0
2.723518914E0,-1.050483108E0,-1.636378169E0,-3.416832983E-1,1.974334254E0
2.726027612E0,-1.081375718E0,-1.783384442E0,-3.139864504E-1,2.109128020E0
2.728536310E0,-1.101615787E0,-1.923999310E0,-2.884201407E-1,2.235736313E0
2.731045008E0,-1.110137820E0,-2.062483549E0,-2.628538013E-1,2.356976133E0
2.733553706E0,-1.104811549E0,-2.191380501E0,-2.351569533E-1,2.465371341E0
2.736062404E0,-1.084571600E0,-2.311755180E0,-2.117211521E-1,2.562290658E0
2.738571102E0,-1.049417853E0,-2.422542572E0,-1.893506050E-1,2.646855492E0
2.741079800E0,-9.972199202E-1,-2.518416405E0,-1.691105962E-1,2.713939415E0
2.743588498E0,-9.162598848E-1,-2.594050169E0,-1.531316489E-1,2.755372526E0
2.746097195E0,-7.990809083E-1,-2.639856577E0,-1.467400640E-1,2.762047373E0
2.748605893E0,-6.488786936E-1,-2.651574373E0,-1.435442716E-1,2.733586504E0
2.751114591E0,-4.645881057E-1,-2.616420746E0,-1.446095407E-1,2.661280058E0
2.753623289E0,-2.472743243E-1,-2.532264948E0,-1.467400640E-1,2.548537425E0
2.756131987E0,-5.459476262E-3,-2.399106979E0,-1.478053331E-1,2.403661898E0
2.758640685E0,2.523343265E-1,-2.212685823E0,-1.456748098E-1,2.231786799E0
2.761149383E0,5.101281404E-1,-1.987915158E0,-1.403484792E-1,2.057118152E0
2.763658081E0,7.562040091E-1,-1.731186628E0,-1.286305785E-1,1.893514582E0
2.766166779E0,9.777788520E-1,-1.451022267E0,-1.126516312E-1,1.753341807E0
2.768675477E0,1.162069440E0,-1.159139991E0,-9.560741484E-2,1.644126418E0
2.771184175E0,1.303749561E0,-8.598009348E-1,-7.643266767E-2,1.563605615E0
2.773692873E0,1.395362258E0,-5.562008023E-1,-5.299686641E-2,1.503064813E0
2.776201570E0,1.439038038E0,-2.536658943E-1,-2.636527456E-2,1.461462278E0
2.778710268E0,1.434777021E0,4.673844203E-2,-7.989477599E-4,1.435538304E0
2.781218966E0,1.387905359E0,3.407512009E-1,2.796317078E-2,1.429396588E0
2.783727664E0,1.303749561E0,6.241113544E-1,5.566002429E-2,1.446504732E0
2.786236362E0,1.189766288E0,9.000146389E-1,8.016108721E-2,1.493986603E0
2.788745060E0,1.055543065E0,1.162069440E0,1.025316268E-1,1.573241647E0
2.791253758E0,9.096019864E-1,1.403884292E0,1.217063740E-1,1.677223694E0
2.793762456E0,7.572692633E-1,1.624393940E0,1.376853287E-1,1.797517638E0
2.796271154E0,6.060018539E-1,1.823598146E0,1.504684836E-1,1.927534490E0
2.798779852E0,4.600607455E-1,1.994040370E0,1.621863842E-1,2.052841277E0
2.801288550E0,3.183806837E-1,2.130394220E0,1.675127149E-1,2.160556943E0
2.803797248E0,1.873532385E-1,2.236920595E0,1.696432382E-1,2.251153885E0
2.806305945E0,6.697845459E-2,2.312554121E0,1.707084924E-1,2.319813369E0
2.808814643E0,-4.167843983E-2,2.364752054E0,1.685779691E-1,2.371119546E0
2.811323341E0,-1.396826953E-1,2.394579411E0,1.685779691E-1,2.404566560E0
2.813832039E0,-2.249037921E-1,2.407362700E0,1.685779691E-1,2.423715209E0
2.816340737E0,-2.994722426E-1,2.407362700E0,1.717737615E-1,2.431991985E0
2.818849435E0,-3.633880615E-1,2.393514156E0,1.749695539E-1,2.427256732E0
2.821358133E0,-4.155859649E-1,2.367947817E0,1.792306006E-1,2.410811516E0
2.823866831E0,-4.550007284E-1,2.327467918E0,1.856221855E-1,2.378778714E0
2.826375529E0,-4.837628603E-1,2.275269985E0,1.930790395E-1,2.334129286E0
2.828884227E0,-5.029376149E-1,2.209223747E0,1.973400861E-1,2.274326036E0
2.831392925E0,-5.103944540E-1,2.129328966E0,2.005358785E-1,2.198808537E0
2.833901623E0,-5.082638860E-1,2.037716150E0,2.047969401E-1,2.110109256E0
2.836410320E0,-4.944154918E-1,1.936516166E0,2.058621943E-1,2.009208994E0
2.838919018E0,-4.688491523E-1,1.822532892E0,2.037316710E-1,1.892868792E0
2.841427716E0,-4.358259737E-1,1.703223348E0,2.016011477E-1,1.769620602E0
2.843936414E0,-3.900196552E-1,1.576457024E0,1.973400861E-1,1.635932513E0
2.846445112E0,-3.367564678E-1,1.447560072E0,1.920137703E-1,1.498567439E0
2.848953810E0,-2.760364413E-1,1.316532731E0,1.845569313E-1,1.357761323E0
2.851462508E0,-2.110553533E-1,1.186570525E0,1.781653464E-1,1.218292602E0
2.853971206E0,-1.428784877E-1,1.058738947E0,1.728390306E-1,1.082227218E0
2.856479904E0,-7.576687634E-2,9.351683259E-1,1.675127149E-1,9.530692141E-1
2.858988602E0,-6.524739787E-3,8.115977645E-1,1.632516533E-1,8.278795842E-1
2.861497300E0,6.165213138E-2,6.912229657E-1,1.600558609E-1,7.121854058E-1
2.864005998E0,1.266332120E-1,5.729786754E-1,1.568600684E-1,6.074089346E-1
2.866514695E0,1.884185076E-1,4.579302073E-1,1.547295451E-1,5.187897848E-1
2.869023393E0,2.470080107E-1,3.460775316E-1,1.494032294E-1,4.506705451E-1
2.871532091E0,3.002711833E-1,2.363553643E-1,1.430116445E-1,4.080183479E-1
2.874040789E0,3.460775316E-1,1.319595277E-1,1.344895363E-1,3.940436653E-1
2.876549487E0,3.876228034E-1,3.182475269E-2,1.249021590E-1,4.084908836E-1
2.879058185E0,4.227765203E-1,-6.511423737E-2,1.121189967E-1,4.422109445E-1
2.881566883E0,4.504733682E-1,-1.567269117E-1,9.614004195E-2,4.865516293E-1
2.884075581E0,4.707133770E-1,-2.408827394E-1,7.696529478E-2,5.343399985E-1
2.886584279E0,4.834965467E-1,-3.186469972E-1,5.459476262E-2,5.816230804E-1
2.889092977E0,4.877575934E-1,-3.910849094E-1,2.902843431E-2,6.258574329E-1
2.891601675E0,4.834965467E-1,-4.560659826E-1,4.527370445E-3,6.646695331E-1
2.894110373E0,4.696480930E-1,-5.125249624E-1,-2.316948399E-2,6.955486995E-1
2.896619070E0,4.483428299E-1,-5.636576414E-1,-5.193160102E-2,7.220928757E-1
2.899127768E0,4.174501896E-1,-6.083986759E-1,-8.069372177E-2,7.422432798E-1
2.901636466E0,3.791007102E-1,-6.478134394E-1,-1.094558388E-1,7.585250037E-1
2.904145164E0,3.332943618E-1,-6.819018722E-1,-1.350221634E-1,7.709126277E-1
2.906653862E0,2.800311744E-1,-7.117292881E-1,-1.584579647E-1,7.810793588E-1
2.909162560E0,2.203764170E-1,-7.394261360E-1,-1.765674502E-1,7.915130070E-1
2.911671258E0,1.543300748E-1,-7.628619075E-1,-1.936116666E-1,8.020358716E-1
2.914179956E0,8.508793265E-2,-7.852324843E-1,-2.042642981E-1,8.158148774E-1
2.916688654E0,9.454214945E-3,-8.065377474E-1,-2.127864063E-1,8.341885727E-1
2.919197352E0,-6.724476814E-2,-8.278430104E-1,-2.170474678E-1,8.584611302E-1
2.921706050E0,-1.450090110E-1,-8.534093499E-1,-2.181127369E-1,8.926972039E-1
2.924214748E0,-2.249037921E-1,-8.768451214E-1,-2.159821987E-1,9.306381643E-1
2.926723445E0,-3.037332892E-1,-9.024114609E-1,-2.095906287E-1,9.749505564E-1
2.929232143E0,-3.793670237E-1,-9.290430546E-1,-2.010685056E-1,1.023459271E0
2.931740841E0,-4.539354742E-1,-9.578051567E-1,-1.893506050E-1,1.076708774E0
2.934249539E0,-5.242428780E-1,-9.897630811E-1,-1.765674502E-1,1.133859610E0
2.936758237E0,-5.902892351E-1,-1.024916768E0,-1.648495495E-1,1.194182204E0
2.939266935E0,-6.510092616E-1,-1.062201023E0,-1.520663798E-1,1.255073008E0
2.941775633E0,-7.085334659E-1,-1.102681041E0,-1.392832249E-1,1.318076237E0
2.944284331E0,-7.596661448E-1,-1.145291567E0,-1.265000552E-1,1.380140460E0
2.946793029E0,-8.054724932E-1,-1.192163229E0,-1.169126853E-1,1.443505344E0
2.949301727E0,-8.459525108E-1,-1.242230535E0,-1.083905771E-1,1.506824764E0
2.951810425E0,-8.789756894E-1,-1.293363214E0,-1.019989923E-1,1.567096187E0
2.954319070E0,-9.066725373E-1,-1.343430638E0,-9.667267650E-2,1.623639916E0
2.956827716E0,-9.269125462E-1,-1.391367435E0,-9.454214573E-2,1.674517371E0
2.959336362E0,-9.418262243E-1,-1.439304352E0,-9.241162241E-2,1.722548566E0
2.961845008E0,-9.471525550E-1,-1.485110641E0,-8.921582997E-2,1.763692445E0
2.964353654E0,-9.482178092E-1,-1.523460150E0,-8.921582997E-2,1.796665608E0
2.966862300E0,-9.418262243E-1,-1.558613896E0,-8.921582997E-2,1.823258999E0
2.969370945E0,-9.237167239E-1,-1.591637015E0,-8.921582997E-2,1.842422438E0
2.971879591E0,-8.896282911E-1,-1.615072846E0,-9.028109163E-2,1.846090320E0
2.974388237E0,-8.374303579E-1,-1.631051779E0,-9.134636074E-2,1.835746079E0
2.976896883E0,-7.554050684E-1,-1.631051779E0,-9.028109163E-2,1.799754816E0
2.979405529E0,-6.286386847E-1,-1.617203355E0,-9.241162241E-2,1.737548041E0
2.981914175E0,-4.624575675E-1,-1.574592829E0,-9.241162241E-2,1.643699938E0
2.984422820E0,-2.589922249E-1,-1.496828556E0,-9.028109163E-2,1.521750102E0
2.986931466E0,-2.037316747E-2,-1.389236927E0,-8.495477587E-2,1.391981185E0
2.989440112E0,2.384859025E-1,-1.253948450E0,-7.536740601E-2,1.278648696E0
2.991948758E0,5.026713014E-1,-1.096289396E0,-6.045371294E-2,1.207552702E0
2.994457404E0,7.593998313E-1,-9.183903933E-1,-4.554001987E-2,1.192561492E0
2.996966050E0,9.958883524E-1,-7.245124578E-1,-3.062633052E-2,1.231929334E0
2.999474695E0,1.199353695E0,-5.178512931E-1,-1.677790284E-2,1.306484116E0
3.001983341E0,1.360208511E0,-2.984069884E-1,-7.989477599E-4,1.392556844E0
3.004491987E0,1.474191666E0,-7.150582224E-2,1.518000662E-2,1.476002907E0
3.007000633E0,1.541303277E0,1.617869139E-1,2.796317078E-2,1.550023463E0
3.009509279E0,1.562608600E0,3.950796425E-1,4.287686199E-2,1.612349833E0
3.012017925E0,1.541303277E0,6.294376254E-1,5.779055133E-2,1.665877326E0
3.014526570E0,1.484844327E0,8.605998755E-1,7.270424068E-2,1.717754560E0
3.017035216E0,1.398558021E0,1.082174659E0,8.548741043E-2,1.770416512E0
3.019543862E0,1.292031646E0,1.290966392E0,9.827057272E-2,1.829097347E0
3.022052560E0,1.170591593E0,1.477387547E0,1.067926809E-1,1.887952150E0
3.024561258E0,1.042759895E0,1.636111736E0,1.121189967E-1,1.943394063E0
3.027069956E0,9.117324948E-1,1.759682417E0,1.163800508E-1,1.985266397E0
3.029578654E0,7.817703485E-1,1.845968723E0,1.163800508E-1,2.008061185E0
3.032087352E0,6.560692191E-1,1.901362419E0,1.142495275E-1,2.014611333E0
3.034596050E0,5.356944799E-1,1.931189775E0,1.121189967E-1,2.007245175E0
3.037104748E0,4.206459820E-1,1.935450912E0,1.089232042E-1,1.983627369E0
3.039613445E0,3.130543530E-1,1.922667742E0,1.067926809E-1,1.950912338E0
3.042122143E0,2.139848322E-1,1.892840385E0,1.046621501E-1,1.907770531E0
3.044630841E0,1.213068962E-1,1.851294994E0,1.046621501E-1,1.858214919E0
3.047139539E0,3.502054140E-2,1.799097180E0,1.057274193E-1,1.802541370E0
3.049648237E0,-4.274370521E-2,1.737311840E0,1.057274193E-1,1.741050758E0
3.052156935E0,-1.109205782E-1,1.668069720E0,1.078579426E-1,1.675229328E0
3.054665633E0,-1.705753356E-1,1.588174939E0,1.099884734E-1,1.601091205E0
3.057174331E0,-2.174469382E-1,1.496562243E0,1.131842583E-1,1.516506641E0
3.059683029E0,-2.494048476E-1,1.385774851E0,1.174453199E-1,1.412928915E0
3.062191727E0,-2.515353858E-1,1.233442187E0,1.238368973E-1,1.264905236E0
3.064700425E0,-2.302301079E-1,1.038498878E0,1.302284747E-1,1.071655392E0
3.067209123E0,-1.929458827E-1,8.222503662E-1,1.408811212E-1,8.562542080E-1
3.069717820E0,-1.460742801E-1,6.006755233E-1,1.515337527E-1,6.364835094E-1
3.072226518E0,-9.494162351E-2,3.854922652E-1,1.621863842E-1,4.288620077E-1
3.074735216E0,-4.061317816E-2,1.852227151E-1,1.685779691E-1,2.537231091E-1
3.077243914E0,8.388951421E-3,6.258423906E-3,1.749695539E-1,1.752823071E-1
3.079752612E0,5.526055023E-2,-1.503353268E-1,1.760348231E-1,2.379972643E-1
3.082261310E0,9.893636405E-2,-2.781669796E-1,1.707084924E-1,3.410376255E-1
3.084770008E0,1.394163817E-1,-3.836280704E-1,1.664474458E-1,4.408085481E-1
3.087278706E0,1.735048145E-1,-4.688491523E-1,1.579253376E-1,5.242746041E-1
3.089787404E0,2.043974549E-1,-5.327649713E-1,1.472726911E-1,5.893268021E-1
3.092296102E0,2.299637944E-1,-5.764408112E-1,1.291632205E-1,6.339167871E-1
3.094804800E0,2.512690723E-1,-6.020070910E-1,1.121189967E-1,6.619058496E-1
3.097313498E0,2.661827505E-1,-6.094639897E-1,8.974846452E-2,6.710844942E-1
3.099822195E0,2.757701278E-1,-6.009418368E-1,6.631266326E-2,6.645130728E-1
3.102330893E0,2.800311744E-1,-5.743102431E-1,3.968106955E-2,6.401752114E-1
3.104839591E0,2.779006660E-1,-5.348954797E-1,1.304947957E-2,6.029197652E-1
3.107348289E0,2.704437971E-1,-4.805670679E-1,-1.571263932E-2,5.516624341E-1
3.109856987E0,2.565953732E-1,-4.166512489E-1,-4.447475821E-2,4.913425006E-1
3.112365685E0,2.384859025E-1,-3.399522603E-1,-6.897582114E-2,4.209521693E-1
3.114874383E0,2.150501013E-1,-2.557964325E-1,-9.241162241E-2,3.467250624E-1
3.117383081E0,1.873532385E-1,-1.705753356E-1,-1.158474237E-1,2.785997248E-1
3.119891779E0,1.564605981E-1,-8.961530030E-2,-1.382179558E-1,2.271894014E-1
3.122400477E0,1.202416345E-1,-1.611211337E-2,-1.616537571E-1,2.021128102E-1
3.124909175E0,7.976161689E-2,4.780370742E-2,-1.850895584E-1,2.071358361E-1
3.127417873E0,3.608580679E-2,1.053279415E-1,-2.053295672E-1,2.335730975E-1
3.129926570E0,-8.655266836E-3,1.575258672E-1,-2.234390527E-1,2.735220700E-1
3.132435268E0,-5.552686751E-2,2.012016773E-1,-2.383527458E-1,3.168238933E-1
3.134943966E0,-1.066595241E-1,2.395511568E-1,-2.511359155E-1,3.630843688E-1
3.137452664E0,-1.588574350E-1,2.693785429E-1,-2.596580088E-1,4.064760332E-1
3.139961362E0,-2.099900991E-1,2.917490900E-1,-2.660495937E-1,4.472088545E-1
3.142470060E0,-2.621880174E-1,3.045322299E-1,-2.660495937E-1,4.819386079E-1
3.144978758E0,-3.122554123E-1,3.109238148E-1,-2.607232630E-1,5.120094540E-1
3.147487456E0,-3.612575233E-1,3.162501454E-1,-2.522011697E-1,5.423343827E-1
3.149996154E0,-4.081291258E-1,3.205111921E-1,-2.394180000E-1,5.715048437E-1
3.152504852E0,-4.518049359E-1,3.194459379E-1,-2.234390527E-1,5.967398241E-1
3.155013550E0,-4.933502376E-1,3.130543530E-1,-2.053295672E-1,6.193203662E-1
3.157522248E0,-5.316997170E-1,3.013364673E-1,-1.861548275E-1,6.388754772E-1
3.160030945E0,-5.668534040E-1,2.853575051E-1,-1.659148186E-1,6.559568693E-1
3.162539643E0,-5.988113284E-1,2.608564198E-1,-1.467400640E-1,6.694428468E-1
3.165048341E0,-6.265081763E-1,2.257027328E-1,-1.307611167E-1,6.786403232E-1
3.167557039E0,-6.542050242E-1,1.830921918E-1,-1.158474237E-1,6.891499039E-1
3.170065737E0,-6.776408553E-1,1.298290044E-1,-1.051947847E-1,6.979388526E-1
3.172574435E0,-6.989461184E-1,6.910897791E-2,-9.773793817E-2,7.091222968E-1
3.175083133E0,-7.191861272E-1,9.321057005E-4,-9.454214573E-2,7.253742287E-1
3.177591831E0,-7.340998054E-1,-7.470161468E-2,-9.454214573E-2,7.439227600E-1
3.180100529E0,-7.468829751E-1,-1.556616426E-1,-9.773793817E-2,7.691667115E-1
3.182609227E0,-7.586008906E-1,-2.451438010E-1,-1.019989923E-1,8.037254437E-1
3.185117925E0,-7.692534924E-1,-3.420827985E-1,-1.083905771E-1,8.488345503E-1
3.187626623E0,-7.767103314E-1,-4.422175586E-1,-1.158474237E-1,9.012524251E-1
3.190135320E0,-7.831019163E-1,-5.455481410E-1,-1.233042628E-1,9.623280764E-1
3.192644018E0,-7.905587554E-1,-6.531397700E-1,-1.328916401E-1,1.034038149E0
3.195152716E0,-7.958850861E-1,-7.660577297E-1,-1.424790174E-1,1.113812276E0
3.197661414E0,-8.001461625E-1,-8.843019605E-1,-1.520663798E-1,1.202226278E0
3.200170112E0,-8.001461625E-1,-1.006807327E0,-1.627190262E-1,1.296291772E0
3.202678810E0,-7.948198318E-1,-1.129312634E0,-1.712411344E-1,1.391549179E0
3.205187508E0,-7.809714079E-1,-1.249687433E0,-1.744369268E-1,1.483935060E0
3.207696206E0,-7.564703226E-1,-1.363670588E0,-1.765674502E-1,1.569401442E0
3.210204904E0,-7.159903049E-1,-1.469131708E0,-1.733716577E-1,1.643486484E0
3.212713602E0,-6.499440074E-1,-1.562874913E0,-1.627190262E-1,1.700436029E0
3.215222300E0,-5.412870646E-1,-1.634247541E0,-1.478053331E-1,1.727889791E0
3.217730998E0,-3.846933246E-1,-1.678988695E0,-1.243695319E-1,1.726979957E0
3.220239695E0,-1.844237745E-1,-1.689641237E0,-9.241162241E-2,1.702186696E0
3.222748393E0,5.526055023E-2,-1.665140271E0,-5.512739345E-2,1.666968770E0
3.225257091E0,3.237069845E-1,-1.600159168E0,-1.145158429E-2,1.632613461E0
3.227765789E0,6.028060913E-1,-1.490437031E0,3.542001545E-2,1.608114518E0
3.230274487E0,8.808398843E-1,-1.342365384E0,8.548741043E-2,1.607834514E0
3.232783185E0,1.136503100E0,-1.164466262E0,1.323590130E-1,1.632525614E0
3.235291883E0,1.354882240E0,-9.610009789E-1,1.771000773E-1,1.670506870E0
3.237800581E0,1.524259090E0,-7.383608818E-1,2.154495716E-1,1.707325711E0
3.240309279E0,1.638242364E0,-5.114597082E-1,2.484727502E-1,1.734118734E0
3.242817977E0,1.693636060E0,-2.824280262E-1,2.772348523E-1,1.739260721E0
3.245326675E0,1.690440297E0,-6.191844866E-2,2.985401452E-1,1.717716074E0
3.247835373E0,1.637177110E0,1.447426975E-1,3.081275225E-1,1.672196731E0
3.250344070E0,1.544499159E0,3.364901543E-1,3.091927767E-1,1.610684156E0
3.252852768E0,1.423059106E0,5.101281404E-1,3.006706536E-1,1.541340579E0
3.255361466E0,1.281378984E0,6.667218804E-1,2.868222296E-1,1.472656497E0
3.257870164E0,1.127981067E0,7.998798490E-1,2.687127590E-1,1.408671575E0
3.260378862E0,9.703220129E-1,9.149283171E-1,2.463422120E-1,1.356209099E0
3.262887560E0,8.105324507E-1,1.006541014E0,2.229064107E-1,1.311401896E0
3.265396258E0,6.539387107E-1,1.077913642E0,1.984053552E-1,1.276283018E0
3.267904956E0,5.026713014E-1,1.129046321E0,1.771000773E-1,1.248514505E0
3.270413654E0,3.577954173E-1,1.166330576E0,1.568600684E-1,1.230020184E0
3.272922352E0,2.214416862E-1,1.189766288E0,1.408811212E-1,1.218370933E0
3.275431050E0,9.467530251E-2,1.202549458E0,1.270326823E-1,1.212941018E0
3.277939748E0,-2.356895804E-2,1.202549458E0,1.185105816E-1,1.208604754E0
3.280448445E0,-1.322258562E-1,1.192962170E0,1.099884734E-1,1.205296594E0
3.282957143E0,-2.291648388E-1,1.172722101E0,1.046621501E-1,1.199478143E0
3.285465841E0,-3.165164590E-1,1.145025253E0,1.046621501E-1,1.192568516E0
3.287974539E0,-3.921501637E-1,1.109871507E0,1.046621501E-1,1.181757453E0
3.290483237E0,-4.507396817E-1,1.058738947E0,1.078579426E-1,1.155736888E0
3.292991935E0,-4.944154918E-1,9.884315133E-1,1.131842583E-1,1.110969942E0
3.295500633E0,-5.050681233E-1,8.701872230E-1,1.206411049E-1,1.013347861E0
3.298009331E0,-4.922849536E-1,7.125282288E-1,1.312937438E-1,8.759446327E-1
3.300518029E0,-4.581965208E-1,5.346291661E-1,1.430116445E-1,7.184878060E-1
3.303026727E0,-4.091944098E-1,3.471427858E-1,1.525990218E-1,5.578840742E-1
3.305535425E0,-3.527354300E-1,1.607216448E-1,1.611211300E-1,4.197782143E-1
3.308044123E0,-2.973417044E-1,-1.504684892E-2,1.643169224E-1,3.400566832E-1
3.310552820E0,-2.440785319E-1,-1.759016514E-1,1.621863842E-1,3.417896193E-1
3.313061518E0,-1.950764060E-1,-3.186469972E-1,1.547295451E-1,4.043908322E-1
3.315570216E0,-1.492700726E-1,-4.411523044E-1,1.430116445E-1,4.871850169E-1
3.318078914E0,-1.055942550E-1,-5.444828868E-1,1.259674281E-1,5.687526296E-1
3.320587612E0,-6.724476814E-2,-6.328997612E-1,1.046621501E-1,6.450101800E-1
3.323096310E0,-3.422159329E-2,-7.021418810E-1,8.229161799E-2,7.077755639E-1
3.325605008E0,-6.524739787E-3,-7.543398142E-1,5.459476262E-2,7.563410048E-1
3.328113706E0,1.584579609E-2,-7.926893234E-1,2.370211668E-2,7.932018930E-1
3.330622404E0,3.182475269E-2,-8.203861713E-1,-6.125265732E-3,8.210260677E-1
3.333131102E0,4.141212255E-2,-8.395609260E-1,-3.914843872E-2,8.414927882E-1
3.335639800E0,4.354264960E-2,-8.491482735E-1,-7.110634446E-2,8.532320112E-1
3.338148498E0,4.141212255E-2,-8.576703668E-1,-1.051947847E-1,8.650892235E-1
3.340657195E0,3.395527974E-2,-8.704535365E-1,-1.403484792E-1,8.823491462E-1
3.343165893E0,2.543316968E-2,-8.885630369E-1,-1.808284968E-1,9.071328800E-1
3.345674591E0,1.371526904E-2,-9.077377915E-1,-2.223737836E-1,9.346796812E-1
3.348183289E0,-1.198421582E-3,-9.247819781E-1,-2.649843395E-1,9.619978396E-1
3.350691987E0,-1.824264042E-2,-9.364998937E-1,-3.075948656E-1,9.858901795E-1
3.353200685E0,-3.741738573E-2,-9.396957159E-1,-3.470096290E-1,1.002418965E0
3.355709383E0,-5.872265995E-2,-9.311735630E-1,-3.832286000E-1,1.008660852E0
3.358218081E0,-8.109319210E-2,-9.045419693E-1,-4.119907022E-1,9.972505296E-1
3.360726779E0,-1.066595241E-1,-8.629966974E-1,-4.364917874E-1,9.729669236E-1
3.363235477E0,-1.332911104E-1,-8.054724932E-1,-4.503402114E-1,9.323941030E-1
3.365744175E0,-1.620532274E-1,-7.340998054E-1,-4.577970505E-1,8.801942468E-1
3.368252873E0,-1.961416751E-1,-6.520745158E-1,-4.577970505E-1,8.205186593E-1
3.370761570E0,-2.334259003E-1,-5.615270734E-1,-4.503402114E-1,7.567077448E-1
3.373270268E0,-2.739059031E-1,-4.635228515E-1,-4.354265034E-1,6.924406960E-1
3.375778966E0,-3.165164590E-1,-3.580617309E-1,-4.173170328E-1,6.344638507E-1
3.378287664E0,-3.601922691E-1,-2.472743243E-1,-3.906854391E-1,5.861042352E-1
3.380796362E0,-4.070638716E-1,-1.322258562E-1,-3.597927988E-1,5.591382035E-1
3.383305060E0,-4.550007284E-1,-1.930790395E-2,-3.278348744E-1,5.611364922E-1
3.385813758E0,-5.029376149E-1,9.361004084E-2,-2.916159332E-1,5.888539180E-1
3.388322456E0,-5.530049801E-1,2.012016773E-1,-2.511359155E-1,6.398170606E-1
3.390831154E0,-6.052029133E-1,2.992059290E-1,-2.117211521E-1,7.075454759E-1
3.393339852E0,-6.605966091E-1,3.886880577E-1,-1.712411344E-1,7.853596706E-1
3.395848550E0,-7.149250507E-1,4.643217921E-1,-1.307611167E-1,8.624447950E-1
3.398357248E0,-7.692534924E-1,5.239765644E-1,-9.347688407E-2,9.354358895E-1
3.400865945E0,-8.246471882E-1,5.655218363E-1,-6.045371294E-2,1.001754752E0
3.403374643E0,-8.789756894E-1,5.868270993E-1,-2.743053809E-2,1.057221236E0
3.405883341E0,-9.311735630E-1,5.910881758E-1,-2.929474926E-3,1.102940623E0
3.408392039E0,-9.823062420E-1,5.708481669E-1,1.731053367E-2,1.136262662E0
3.410900737E0,-1.032373667E0,5.239765644E-1,3.222422674E-2,1.158181863E0
3.413409435E0,-1.078179955E0,4.547344148E-1,4.074633494E-2,1.170861080E0
3.415918133E0,-1.117594719E0,3.609912097E-1,4.181159660E-2,1.175193949E0
3.418426831E0,-1.147422075E0,2.459427416E-1,3.968106955E-2,1.174154946E0
3.420935529E0,-1.166596889E0,1.170458421E-1,3.222422674E-2,1.172896599E0
3.423444227E0,-1.163401008E0,-1.824264042E-2,2.263685316E-2,1.163764205E0
3.425952925E0,-1.116529465E0,-1.503353268E-1,1.304947957E-2,1.126680543E0
3.428461623E0,-1.004676819E0,-2.707101107E-1,2.396843163E-3,1.040511999E0
3.430970320E0,-8.161250949E-1,-3.772364855E-1,-1.864211401E-3,8.990945511E-1
3.433479018E0,-5.508744717E-1,-4.560659826E-1,1.331579522E-3,7.151647622E-1
3.435987716E0,-2.099900991E-1,-5.103944540E-1,1.304947957E-2,5.520585379E-1
3.438496414E0,1.884185076E-1,-5.444828868E-1,3.648528084E-2,5.773164849E-1
3.441005112E0,6.155892015E-1,-5.604618192E-1,6.950845569E-2,8.354034601E-1
3.443513810E0,1.035303116E0,-5.615270734E-1,1.014663652E-1,1.182142385E0
3.446022508E0,1.410275936E0,-5.487439036E-1,1.280979514E-1,1.518686002E0
3.448531206E0,1.719202399E0,-5.242428780E-1,1.462074369E-1,1.803292572E0
3.451039904E0,1.945038199E0,-4.805670679E-1,1.568600684E-1,2.009657529E0
3.453548602E0,2.079261541E0,-4.145207107E-1,1.643169224E-1,2.126536157E0
3.456057300E0,2.119741440E0,-3.271690905E-1,1.675127149E-1,2.151372561E0
3.458565998E0,2.078196287E0,-2.153164148E-1,1.685779691E-1,2.096110564E0
3.461074695E0,1.969539285E0,-8.748477697E-2,1.643169224E-1,1.978317121E0
3.463583393E0,1.811880350E0,5.419528857E-2,1.568600684E-1,1.819464925E0
3.466092091E0,1.622263312E0,2.043974549E-1,1.451421678E-1,1.641518450E0
3.468600789E0,1.413471699E0,3.577954173E-1,1.312937438E-1,1.463952817E0
3.471109487E0,1.196157932E0,5.058670640E-1,1.174453199E-1,1.304027871E0
3.473618185E0,9.788441062E-1,6.400902867E-1,1.067926809E-1,1.174417318E0
3.476126883E0,7.679219246E-1,7.540735006E-1,9.827057272E-2,1.080734950E0
3.478635581E0,5.665870905E-1,8.382292986E-1,8.974846452E-2,1.015728347E0
3.481144279E0,3.759049177E-1,8.893619776E-1,8.335687965E-2,9.691323974E-1
3.483652977E0,1.948100924E-1,9.149283171E-1,7.590003312E-2,9.385124467E-1
3.486161675E0,2.756369673E-2,9.234504104E-1,7.057371736E-2,9.265533268E-1
3.488670373E0,-1.268995255E-1,9.181240797E-1,6.737792492E-2,9.292981761E-1
3.491179070E0,-2.696448565E-1,9.021451473E-1,6.950845569E-2,9.441428075E-1
3.493687768E0,-3.996070325E-1,8.776440620E-1,7.376950979E-2,9.671539798E-1
3.496196466E0,-5.167860389E-1,8.446208835E-1,8.229161799E-2,9.935915444E-1
3.498705164E0,-6.233124137E-1,8.062714338E-1,9.400951862E-2,1.023440169E0
3.501213862E0,-7.159903049E-1,7.604650855E-1,1.057274193E-1,1.049822628E0
3.503722560E0,-7.948198318E-1,7.061366439E-1,1.206411049E-1,1.070010187E0
3.506231258E0,-8.598009348E-1,6.443513632E-1,1.355548054E-1,1.082968805E0
3.508739956E0,-9.098683000E-1,5.761744976E-1,1.525990218E-1,1.087714961E0
3.511248654E0,-9.439567327E-1,5.016059875E-1,1.685779691E-1,1.082165150E0
3.513757352E0,-9.641967416E-1,4.195807278E-1,1.824263930E-1,1.067240710E0
3.516266050E0,-9.684578180E-1,3.322291076E-1,1.909485012E-1,1.041512388E0
3.518774748E0,-9.567399025E-1,2.427469492E-1,1.930790395E-1,1.005761820E0
3.521283445E0,-9.269125462E-1,1.490037590E-1,1.909485012E-1,9.580346124E-1
3.523792143E0,-8.811061978E-1,5.206476152E-2,1.866874546E-1,9.021702040E-1
3.526300841E0,-8.161250949E-1,-5.126581341E-2,1.792306006E-1,8.371451262E-1
3.528809539E0,-7.383608818E-1,-1.545963883E-1,1.707084924E-1,7.734456829E-1
3.531318237E0,-6.520745158E-1,-2.536658943E-1,1.632516533E-1,7.184696670E-1
3.533826935E0,-5.583313107E-1,-3.410175145E-1,1.568600684E-1,6.727792200E-1
3.536335633E0,-4.624575675E-1,-4.038680792E-1,1.557948142E-1,6.334417505E-1
3.538844331E0,-3.655185997E-1,-4.379565120E-1,1.589905918E-1,5.921889575E-1
3.541353029E0,-2.664490640E-1,-4.400870502E-1,1.653821766E-1,5.403915061E-1
3.543861727E0,-1.673795432E-1,-4.145207107E-1,1.749695539E-1,4.800600753E-1
3.546370425E0,-6.831002980E-2,-3.708449006E-1,1.834916621E-1,4.193583081E-1
3.548879123E0,2.649843320E-2,-3.207775056E-1,1.941442937E-1,3.758887892E-1
3.551387820E0,1.170458421E-1,-2.717753947E-1,2.005358785E-1,3.574580156E-1
3.553896518E0,2.033322006E-1,-2.323606312E-1,2.026664019E-1,3.693360492E-1
3.556405216E0,2.810964286E-1,-2.057290375E-1,2.016011477E-1,4.024706968E-1
3.558913914E0,3.514038324E-1,-1.940111369E-1,1.952095628E-1,4.463538373E-1
3.561422612E0,4.163849354E-1,-1.929458827E-1,1.834916621E-1,4.942405468E-1
3.563931310E0,4.717786312E-1,-2.035985142E-1,1.643169224E-1,5.394696311E-1
3.566440008E0,5.186502337E-1,-2.195774615E-1,1.398158520E-1,5.803109503E-1
3.568948706E0,5.580649972E-1,-2.376869470E-1,1.121189967E-1,6.168486810E-1
3.571457404E0,5.900229216E-1,-2.589922249E-1,7.803056389E-2,6.490707122E-1
3.573966102E0,6.145239472E-1,-2.813627720E-1,3.755054250E-2,6.769156036E-1
3.576474800E0,6.305029392E-1,-3.016027808E-1,-9.321057238E-3,6.989886093E-1
3.578983498E0,6.347639561E-1,-3.175817132E-1,-6.045371294E-2,7.123468789E-1
3.581492195E0,6.283723712E-1,-3.282343447E-1,-1.147821546E-1,7.181675048E-1
3.584000893E0,6.155892015E-1,-3.388870060E-1,-1.723063886E-1,7.235219135E-1
3.586509591E0,5.932186842E-1,-3.495396376E-1,-2.319611609E-1,7.265620040E-1
3.589018289E0,5.623260736E-1,-3.612575233E-1,-2.884201407E-1,7.279449078E-1
3.591526987E0,5.186502337E-1,-3.708449006E-1,-3.416832983E-1,7.233750629E-1
3.594035685E0,4.696480930E-1,-3.857586086E-1,-3.906854391E-1,7.225054655E-1
3.596544383E0,4.089280665E-1,-3.974764943E-1,-4.332959950E-1,7.162088706E-1
3.599053081E0,3.396859467E-1,-3.942807019E-1,-4.663191736E-1,6.987827888E-1
3.601561779E0,2.629869580E-1,-3.804322779E-1,-4.897549450E-1,6.736102466E-1
3.604070477E0,1.777658761E-1,-3.569964767E-1,-5.046686530E-1,6.432244090E-1
3.606579175E0,8.615319431E-2,-3.271690905E-1,-5.099949837E-1,6.120105147E-1
3.609087873E0,-1.291632187E-2,-2.920154035E-1,-5.078644156E-1,5.859744806E-1
3.611596570E0,-1.162468940E-1,-2.526006401E-1,-4.961465299E-1,5.687546069E-1
3.614105268E0,-2.249037921E-1,-2.067943066E-1,-4.769718051E-1,5.664342008E-1
3.616613966E0,-3.378217220E-1,-1.609879732E-1,-4.503402114E-1,5.855313394E-1
3.619122664E0,-4.550007284E-1,-1.098553166E-1,-4.183822870E-1,6.278037842E-1
3.621631362E0,-5.721797347E-1,-5.872265995E-2,-3.789675534E-1,6.888065085E-1
3.624140060E0,-6.914892793E-1,-1.078579482E-2,-3.374222517E-1,7.694982343E-1
3.626648758E0,-8.139945865E-1,2.969422378E-2,-2.905506492E-1,8.648055351E-1
3.629157456E0,-9.364998937E-1,5.952160433E-2,-2.458095849E-1,9.700501143E-1
3.631666154E0,-1.056874633E0,7.550056279E-2,-2.010685056E-1,1.078477106E0
3.634174852E0,-1.176184177E0,7.763108611E-2,-1.584579647E-1,1.189346346E0
3.636683550E0,-1.289102197E0,6.484792382E-2,-1.190432087E-1,1.296210250E0
3.639192248E0,-1.389236927E0,4.034686089E-2,-8.495477587E-2,1.392416756E0
3.641700945E0,-1.473392725E0,4.127896391E-3,-5.299686641E-2,1.474351325E0
3.644209643E0,-1.527721167E0,-3.422159329E-2,-2.530001104E-2,1.528313833E0
3.646718341E0,-1.527721167E0,-7.257108390E-2,-1.864211401E-3,1.529444998E0
3.649227039E0,-1.424390674E0,-9.387636185E-2,1.624527015E-2,1.427573281E0
3.651735737E0,-1.206011653E0,-9.813741595E-2,2.902843431E-2,1.210346111E0
3.654244435E0,-8.906935453E-1,-7.150582224E-2,4.181159660E-2,8.945369103E-1
3.656753133E0,-4.965460002E-1,-2.356895804E-2,5.672528967E-2,5.003310750E-1
3.659261831E0,-4.593949392E-2,3.182475269E-2,7.376950979E-2,9.254832554E-2
3.661770529E0,4.195807278E-1,9.041424841E-2,9.081372619E-2,4.387138661E-1
3.664279227E0,8.648608923E-1,1.458079666E-1,1.067926809E-1,8.835434357E-1
3.666787925E0,1.259008408E0,1.990711391E-1,1.195758432E-1,1.280246020E0
3.669296623E0,1.578587532E0,2.533995807E-1,1.323590130E-1,1.604265830E0
3.671805320E0,1.810814977E0,3.109238148E-1,1.483379602E-1,1.843292882E0
3.674314018E0,1.948234081E0,3.737743795E-1,1.643169224E-1,1.990558558E0
3.676822716E0,1.996170878E0,4.376901984E-1,1.781653464E-1,2.051344383E0
3.679331414E0,1.966343522E0,5.037365556E-1,1.866874546E-1,2.038408588E0
3.681840112E0,1.876861334E0,5.719134212E-1,1.898832470E-1,1.971230346E0
3.684348810E0,1.742638111E0,6.422207952E-1,1.856221855E-1,1.866464768E0
3.686857508E0,1.580718040E0,7.157239914E-1,1.781653464E-1,1.744326015E0
3.689366206E0,1.397492766E0,7.913577557E-1,1.685779691E-1,1.614822486E0
3.691874904E0,1.201484203E0,8.648608923E-1,1.579253376E-1,1.488787784E0
3.694383602E0,1.000149369E0,9.213199019E-1,1.462074369E-1,1.367664336E0
3.696892300E0,8.020103574E-1,9.522125125E-1,1.312937438E-1,1.251865540E0
3.699400998E0,6.102629304E-1,9.649956822E-1,1.185105816E-1,1.147903423E0
3.701909695E0,4.249070287E-1,9.617999196E-1,1.025316268E-1,1.056464767E0
3.704418393E0,2.491385341E-1,9.468862414E-1,8.868319541E-2,9.831216977E-1
3.706927091E0,8.295740932E-2,9.245156646E-1,7.803056389E-2,9.315041142E-1
3.709435789E0,-7.044056058E-2,8.957535625E-1,6.844318658E-2,9.011219601E-1
3.711944487E0,-2.121206224E-1,8.627303839E-1,6.205160543E-2,8.905892855E-1
3.714453185E0,-3.420827985E-1,8.254461884E-1,5.885581672E-2,8.954585743E-1
3.716961883E0,-4.613923132E-1,7.839008570E-1,5.885581672E-2,9.115083255E-1
3.719470581E0,-5.689839721E-1,7.370292544E-1,5.992107838E-2,9.330302342E-1
3.721979279E0,-6.627271175E-1,6.848313808E-1,6.524740160E-2,9.552269238E-1
3.724487977E0,-7.426218987E-1,6.273071170E-1,7.163897902E-2,9.747479914E-1
3.726996675E0,-8.086682558E-1,5.655218363E-1,8.016108721E-2,9.900429764E-1
3.729505373E0,-8.619314432E-1,4.973449707E-1,8.868319541E-2,9.990708392E-1
3.732014070E0,-8.970851302E-1,4.142543972E-1,9.933583438E-2,9.930941770E-1
3.734522716E0,-9.130641222E-1,3.205111921E-1,1.089232042E-1,9.737955535E-1
3.737031362E0,-9.077377915E-1,2.097237855E-1,1.185105816E-1,9.391574534E-1
3.739540008E0,-8.800409436E-1,7.869634777E-2,1.291632205E-1,8.929436237E-1
3.742048654E0,-8.331693411E-1,-6.298371404E-2,1.398158520E-1,8.471638399E-1
3.744557300E0,-7.703187466E-1,-2.131858915E-1,1.472726911E-1,8.127290085E-1
3.747065945E0,-6.946850419E-1,-3.601922691E-1,1.568600684E-1,7.980794818E-1
3.749574591E0,-6.105292439E-1,-4.954807460E-1,1.643169224E-1,8.032727920E-1
3.752083237E0,-5.242428780E-1,-6.158555150E-1,1.707084924E-1,8.265893780E-1
3.754591883E0,-4.347607195E-1,-7.170555592E-1,1.771000773E-1,8.570589219E-1
3.757100529E0,-3.463438451E-1,-7.948198318E-1,1.802958697E-1,8.855502384E-1
3.759609175E0,-2.600574791E-1,-8.555398583E-1,1.824263930E-1,9.126103936E-1
3.762117820E0,-1.769669205E-1,-8.970851302E-1,1.824263930E-1,9.323939139E-1
3.764626466E0,-9.600688517E-2,-9.226514697E-1,1.802958697E-1,9.449918821E-1
3.767135112E0,-1.717737690E-2,-9.311735630E-1,1.781653464E-1,9.482205215E-1
3.769643758E0,5.952160433E-2,-9.215862155E-1,1.717737615E-1,9.393456228E-1
3.772152404E0,1.330247968E-1,-8.938893676E-1,1.643169224E-1,9.185498620E-1
3.774661050E0,2.043974549E-1,-8.491482735E-1,1.568600684E-1,8.873760144E-1
3.777169695E0,2.747048736E-1,-7.894935012E-1,1.483379602E-1,8.489799211E-1
3.779678341E0,3.396859467E-1,-7.191861272E-1,1.366200596E-1,8.070193731E-1
3.782186987E0,3.993407190E-1,-6.478134394E-1,1.259674281E-1,7.713644113E-1
3.784695633E0,4.526038766E-1,-5.785713196E-1,1.121189967E-1,7.430785358E-1
3.787204279E0,4.994754791E-1,-5.157207847E-1,9.720530361E-2,7.244946881E-1
3.789712925E0,5.367597342E-1,-4.656533599E-1,7.590003312E-2,7.146361863E-1
3.792221570E0,5.644565821E-1,-4.241080880E-1,5.246423557E-2,7.079769766E-1
3.794730216E0,5.836313367E-1,-3.921501637E-1,2.476738021E-2,7.035770826E-1
3.797238862E0,5.910881758E-1,-3.697796464E-1,-8.255792782E-3,6.972735306E-1
3.799747508E0,5.857618451E-1,-3.569964767E-1,-4.340949282E-2,6.873483888E-1
3.802256206E0,5.697829127E-1,-3.495396376E-1,-8.069372177E-2,6.733067671E-1
3.804764904E0,5.420860648E-1,-3.538006842E-1,-1.201084778E-1,6.583754797E-1
3.807273602E0,5.048018098E-1,-3.655185997E-1,-1.584579647E-1,6.430689236E-1
3.809782300E0,4.557996690E-1,-3.857586086E-1,-1.957421899E-1,6.283932266E-1
3.812290998E0,3.950796425E-1,-4.113249183E-1,-2.308958918E-1,6.152958843E-1
3.814799695E0,3.258375227E-1,-4.400870502E-1,-2.628538013E-1,6.074033452E-1
3.817308393E0,2.480732650E-1,-4.709796906E-1,-2.905506492E-1,6.064502399E-1
3.819817091E0,1.596563905E-1,-4.997417927E-1,-3.139864504E-1,6.114078127E-1
3.822325789E0,6.697845459E-2,-5.263733864E-1,-3.342264593E-1,6.271063557E-1
3.824834487E0,-3.422159329E-2,-5.466133952E-1,-3.470096290E-1,6.483617847E-1
3.827343185E0,-1.396826953E-1,-5.647228956E-1,-3.555317521E-1,6.817815126E-1
3.829851883E0,-2.483395934E-1,-5.807018280E-1,-3.587275445E-1,7.263419428E-1
3.832360581E0,-3.612575233E-1,-5.945502520E-1,-3.565970063E-1,7.817662216E-1
3.834869279E0,-4.731102288E-1,-6.105292439E-1,-3.502054214E-1,8.480702114E-1
3.837377977E0,-5.870934129E-1,-6.243776679E-1,-3.395527899E-1,9.218580394E-1
3.839886675E0,-7.021418810E-1,-6.360955238E-1,-3.278348744E-1,1.002544982E0
3.842395373E0,-8.150598407E-1,-6.520745158E-1,-3.118559420E-1,1.089393339E0
3.844904070E0,-9.258472323E-1,-6.648576856E-1,-2.926811874E-1,1.176813969E0
3.847412768E0,-1.030243158E0,-6.797713637E-1,-2.735064328E-1,1.264237257E0
3.849921466E0,-1.129312634E0,-6.936197877E-1,-2.500706315E-1,1.348699654E0
3.852430164E0,-1.218794823E0,-7.106640339E-1,-2.245043069E-1,1.428602944E0
3.854938862E0,-1.300820112E0,-7.287734747E-1,-1.978727281E-1,1.504126776E0
3.857447560E0,-1.366866350E0,-7.490134835E-1,-1.712411344E-1,1.568014140E0
3.859956258E0,-1.417999029E0,-7.681882381E-1,-1.446095407E-1,1.619180761E0
3.862464956E0,-1.448891759E0,-7.873629928E-1,-1.179779470E-1,1.653223097E0
3.864973654E0,-1.443565369E0,-7.969503403E-1,-9.241162241E-2,1.651529814E0
3.867482352E0,-1.380714893E0,-7.884282470E-1,-7.110634446E-2,1.591555475E0
3.869991050E0,-1.246491671E0,-7.639271617E-1,-5.299686641E-2,1.462919978E0
3.872499748E0,-1.049417853E0,-7.117292881E-1,-3.595264629E-2,1.268514487E0
3.875008445E0,-7.948198318E-1,-6.307692528E-1,-1.677790284E-2,1.014834919E0
3.877517143E0,-4.795017838E-1,-5.285038948E-1,2.396843163E-3,7.136133914E-1
3.880025841E0,-1.162468940E-1,-4.038680792E-1,2.050632425E-2,4.207651068E-1
3.882534539E0,2.725743353E-1,-2.664490640E-1,4.287686199E-2,3.835756735E-1
3.885043237E0,6.581997871E-1,-1.247690022E-1,6.631266326E-2,6.731950928E-1
3.887551935E0,1.017193675E0,1.691105962E-2,9.081372619E-2,1.021379503E0
3.890060633E0,1.328250647E0,1.532648057E-1,1.110537350E-1,1.341667922E0
3.892569331E0,1.572196007E0,2.853575051E-1,1.280979514E-1,1.603009131E0
3.895078029E0,1.741572857E0,4.163849354E-1,1.408811212E-1,1.796190391E0
3.897586727E0,1.834250808E0,5.495429039E-1,1.515337527E-1,1.920790438E0
3.900095425E0,1.855556130E0,6.848313808E-1,1.600558609E-1,1.984363992E0
3.902604123E0,1.812945604E0,8.254461884E-1,1.685779691E-1,1.999137741E0
3.905112820E0,1.718137145E0,9.724525213E-1,1.717737615E-1,1.981707693E0
3.907621518E0,1.578587532E0,1.126915812E0,1.685779691E-1,1.946868351E0
3.910130216E0,1.409210682E0,1.287770629E0,1.653821766E-1,1.916136530E0
3.912638914E0,1.222789526E0,1.444364309E0,1.568600684E-1,1.898949068E0
3.915147612E0,1.029976726E0,1.593501210E0,1.462074369E-1,1.903017282E0
3.917656310E0,8.371640444E-1,1.729854941E0,1.355548054E-1,1.926555699E0
3.920165008E0,6.486123800E-1,1.851294994E0,1.249021590E-1,1.965602128E0
3.922673706E0,4.685828388E-1,1.954625607E0,1.121189967E-1,2.013132337E0
3.925182404E0,2.970753908E-1,2.040911913E0,1.004010960E-1,2.064862127E0
3.927691102E0,1.372858584E-1,2.110154152E0,8.974846452E-2,2.116519014E0
3.930199800E0,-1.078579482E-2,2.161286831E0,8.548741043E-2,2.163003744E0
3.932708498E0,-1.450090110E-1,2.194309950E0,8.122635633E-2,2.200595713E0
3.935217195E0,-2.675143182E-1,2.209223747E0,7.909582555E-2,2.226766630E0
3.937725893E0,-3.783017397E-1,2.209223747E0,7.909582555E-2,2.242774603E0
3.940234591E0,-4.763059914E-1,2.190048933E0,7.909582555E-2,2.242640826E0
3.942743289E0,-5.625923872E-1,2.153829813E0,8.016108721E-2,2.227536500E0
3.945251987E0,-6.360955238E-1,2.102697372E0,8.229161799E-2,2.198346121E0
3.947760685E0,-6.957502961E-1,2.043042421E0,8.442214131E-2,2.159911551E0
3.950269383E0,-7.404913902E-1,1.974865675E0,8.974846452E-2,2.111036883E0
3.952778081E0,-7.681882381E-1,1.898166656E0,9.614004195E-2,2.049973837E0
3.955286779E0,-7.788408995E-1,1.816141367E0,1.035968885E-1,1.978811493E0
3.957795477E0,-7.724493146E-1,1.726659179E0,1.089232042E-1,1.894701593E0
3.960304175E0,-7.468829751E-1,1.630785465E0,1.131842583E-1,1.797249590E0
3.962812873E0,-7.032071352E-1,1.527454853E0,1.153147891E-1,1.685501736E0
3.965321570E0,-6.403566003E-1,1.415602207E0,1.174453199E-1,1.558133366E0
3.967830268E0,-5.647228956E-1,1.296292663E0,1.195758432E-1,1.419008456E0
3.970338966E0,-4.763059914E-1,1.175917864E0,1.249021590E-1,1.274853234E0
3.972847664E0,-3.772364855E-1,1.054477811E0,1.312937438E-1,1.127594283E0
3.975356362E0,-2.717753947E-1,9.351683259E-1,1.398158520E-1,9.838445687E-1
3.977865060E0,-1.620532274E-1,8.211851120E-1,1.536642760E-1,8.510105442E-1
3.980373758E0,-5.233107507E-2,7.146587372E-1,1.696432382E-1,7.363793046E-1
3.982882456E0,5.526055023E-2,6.187850237E-1,1.866874546E-1,6.486916368E-1
3.985391154E0,1.607216448E-1,5.324986577E-1,2.069274634E-1,5.934688220E-1
3.987899852E0,2.597911656E-1,4.568649530E-1,2.239716798E-1,5.712970754E-1
3.990408550E0,3.514038324E-1,3.876228034E-1,2.399506420E-1,5.755974303E-1
3.992917248E0,4.376901984E-1,3.247722387E-1,2.537990510E-1,6.012184920E-1
3.995425945E0,5.133239031E-1,2.661827505E-1,2.655169666E-1,6.362813416E-1
3.997934643E0,5.825660825E-1,2.118543088E-1,2.719085515E-1,6.769045346E-1
4.000443341E0,6.443513632E-1,1.596563905E-1,2.729738057E-1,7.177698384E-1
4.002952039E0,6.976145506E-1,1.085237339E-1,2.740390599E-1,7.573248103E-1
4.005460737E0,7.412903309E-1,6.165213138E-2,2.697780132E-1,7.912600814E-1
4.007969435E0,7.753787637E-1,1.797632314E-2,2.612559199E-1,8.184070082E-1
4.010478133E0,8.009451032E-1,-2.463422157E-2,2.506032586E-1,8.395962699E-1
4.012986831E0,8.158587813E-1,-6.511423737E-2,2.335590571E-1,8.511258709E-1
4.015495529E0,8.190546036E-1,-1.023984700E-1,2.122537792E-1,8.522837304E-1
4.018004227E0,8.126630187E-1,-1.364869028E-1,1.834916621E-1,8.442268929E-1
4.020512925E0,7.956187725E-1,-1.716406047E-1,1.494032294E-1,8.275210289E-1
4.023021623E0,7.668566704E-1,-2.078595608E-1,1.110537350E-1,8.022516326E-1
4.025530320E0,7.285071611E-1,-2.462090552E-1,6.844318658E-2,7.720272356E-1
4.028039018E0,6.795050502E-1,-2.866890728E-1,2.476738021E-2,7.379235467E-1
