"Time (s)","Linear Acceleration x (m/s^2)","Linear Acceleration y (m/s^2)","Linear Acceleration z (m/s^2)","Absolute acceleration (m/s^2)"
0.000000000E0,-2.414187789E-1,2.569583654E-1,-8.758544922E-2,3.632930488E-1
4.443974000E-3,4.977151752E-2,2.627129853E-1,-5.760030746E-1,6.350392575E-1
9.461786000E-3,-1.273547560E-1,1.114156842E-1,-2.890243530E-1,3.349145640E-1
1.447959900E-2,-9.995529056E-2,1.655215025E-2,1.193350792E0,1.197643998E0
1.949845300E-2,2.913961411E-1,6.797611713E-4,1.655432701E0,1.680883577E0
2.451824500E-2,4.453887939E-1,-5.548995733E-2,7.254667282E-1,8.530839858E-1
2.953881800E-2,1.759082675E-1,-1.610628814E-1,4.807405472E-1,5.366530015E-1
3.456001600E-2,-6.977900863E-3,-1.442310959E-1,8.916835785E-1,9.033000079E-1
3.958163000E-2,6.147737801E-2,4.520684481E-3,6.231384277E-1,6.261800098E-1
4.460350500E-2,4.948115349E-2,7.147705555E-2,-2.141332626E-1,2.311069194E-1
4.962543200E-2,-1.210959107E-1,4.394233227E-2,-6.199874878E-1,6.332295264E-1
5.464413000E-2,-1.943985224E-1,5.604445934E-2,-3.941707611E-1,4.430602169E-1
5.966126600E-2,-9.572280943E-2,4.078018665E-2,-4.318370819E-1,4.441949405E-1
6.467840100E-2,-3.585626185E-2,-2.058163285E-2,-8.091993332E-1,8.102547969E-1
6.969553600E-2,-1.043841094E-1,-9.939745069E-2,-7.223482132E-1,7.365886482E-1
7.471267200E-2,-5.595530570E-2,-6.750348210E-2,-1.191835403E-1,1.479609159E-1
7.972980700E-2,6.337478757E-2,-3.595891595E-2,3.588867188E-1,3.662090717E-1
8.474694300E-2,1.220374107E-1,-1.931595802E-2,4.968729019E-1,5.120048013E-1
8.976407800E-2,1.699481159E-1,-4.614627361E-2,5.152225494E-1,5.444870211E-1
9.478116100E-2,1.645383686E-1,-6.436008215E-2,6.197538376E-1,6.444454314E-1
9.979824500E-2,1.336423159E-1,-8.379033208E-2,5.903549194E-1,6.110646604E-1
1.048153280E-1,7.636456192E-2,-9.481815994E-2,2.502260208E-1,2.782716142E-1
1.098324110E-1,6.000801921E-3,-4.906183481E-2,3.013324738E-2,5.788856412E-2
1.148494950E-1,-4.504214227E-2,3.001117706E-2,-4.620075226E-2,7.116161071E-2
1.198665780E-1,-8.754287660E-2,1.188588440E-1,-1.033401489E-1,1.801953563E-1
1.248836610E-1,-1.126682460E-1,1.366338730E-1,-2.465591431E-1,3.035693659E-1
1.299007450E-1,-1.352002174E-1,1.315073371E-1,-3.514289856E-1,3.988428392E-1
1.349178280E-1,-1.600791514E-1,9.378808737E-2,-3.223476410E-1,3.719267962E-1
1.399349110E-1,-1.154108495E-1,-8.084475994E-4,-2.646760941E-1,2.887451342E-1
1.449519950E-1,2.661240101E-1,-8.235026598E-1,-3.110015869E0,3.228184835E0
1.499690780E-1,1.859176159E-1,-6.557679176E-1,-8.969526291E0,8.995387641E0
1.549861610E-1,-1.621458650E0,1.000583410E0,1.147195625E1,1.162910468E1
1.600032450E-1,3.153289080E0,1.474917293E0,3.183142853E1,3.202121883E1
1.650203280E-1,1.391327262E0,5.983179808E-1,-4.420324802E0,4.672584650E0
1.700374110E-1,1.416422129E-1,-3.269742131E-1,-9.254187584E0,9.261045432E0
1.750544950E-1,5.249907076E-2,-4.078953564E-1,-9.605617523E0,9.614417443E0
1.800715780E-1,4.967321455E-2,-4.215525985E-1,-9.583511353E0,9.592906956E0
1.850886610E-1,-3.983676434E-1,-6.313275695E-1,-9.527895927E0,9.557095379E0
1.901057450E-1,-1.743172288E0,-1.148388982E0,-8.750182152E0,8.995728685E0
1.951228280E-1,-2.551239491E0,-6.240097284E-1,-7.139749527E-1,2.721758864E0
2.001399110E-1,-2.153742313E0,3.749687374E-1,2.226050949E1,2.236759912E1
2.051569950E-1,3.275652826E-1,1.555668592E0,-8.203954697E-1,1.788980858E0
2.101740780E-1,1.532578349E0,1.490840673E0,-5.546343327E0,5.944184267E0
2.151911610E-1,1.144424796E0,7.543390989E-1,-5.043947220E0,5.226867049E0
2.202082450E-1,5.808147788E-1,-1.457111537E-1,-6.335264206E0,6.363501403E0
2.252253280E-1,-1.026880383E0,-5.848027468E-1,7.664799690E0,7.755361492E0
2.302424630E-1,1.097299695E0,-4.827252030E-1,1.337438297E1,1.342800097E1
2.352595990E-1,-3.192946315E-1,-6.772830486E-1,-2.654175282E0,2.757772256E0
2.402767340E-1,8.425085992E-2,-7.648189068E-1,-6.242613792E0,6.289854778E0
2.452938700E-1,-1.490829438E-1,-3.246554136E-1,4.841257095E0,4.854420370E0
2.503110050E-1,1.480168939E0,-3.192470074E-1,1.271711540E1,1.280694510E1
2.553281410E-1,2.415713370E-1,7.732014358E-2,2.056545258E0,2.072127774E0
2.603452760E-1,-1.952295005E-2,-1.045672655E0,-1.722688675E0,2.015308591E0
2.653624110E-1,-5.395832658E-1,-7.035550475E-1,-1.049089432E0,1.373582339E0
2.703795470E-1,3.558515310E-1,9.852336645E-1,-2.365603924E0,2.587160144E0
2.753966820E-1,1.245041728E0,1.471936464E0,-3.384175777E0,3.894787742E0
2.804138180E-1,-1.316009641E0,-3.266028166E-1,-2.206882000E0,2.590150369E0
2.854309530E-1,-1.822305083E0,-9.639691114E-1,-2.595600605E0,3.314690750E0
2.904480880E-1,-1.953246117E0,-4.168134928E-2,-2.066338539E0,2.843705801E0
2.954652240E-1,-7.773754001E-2,1.071408272E0,-1.399949074E0,1.764600867E0
3.004823590E-1,1.656121612E0,1.256112337E0,-2.968552589E0,3.623929010E0
3.054994950E-1,3.076936603E-1,9.564867616E-2,-2.000629425E0,2.026411151E0
3.105166300E-1,-4.417089522E-1,-7.837369442E-1,7.406616211E-1,1.165302550E0
3.155337660E-1,2.870695293E-2,-5.370149016E-1,4.626852036E0,4.658000521E0
3.205509010E-1,1.055706263E0,-2.039345950E-1,4.161602020E0,4.298259695E0
3.255680360E-1,8.273403645E-1,-3.425869346E-2,1.282286644E0,1.526409111E0
3.305851720E-1,1.637200117E-1,-1.788644791E-1,8.364038467E-1,8.708433493E-1
3.356023070E-1,-3.181911409E-1,-1.122254878E-1,1.763972282E0,1.795950549E0
3.406194430E-1,-6.733731925E-2,1.894597411E-1,1.724587440E0,1.736269319E0
3.456365780E-1,3.586722612E-1,3.732300103E-1,-1.571569443E0,1.654622901E0
3.506537130E-1,-2.798730135E-2,1.085093617E-1,-3.276072979E0,3.277988977E0
3.556708490E-1,-8.554955721E-1,-8.993753791E-2,-1.535490036E0,1.760025876E0
3.606879840E-1,-7.464083433E-1,1.293100417E-1,-4.958095551E-1,9.053582809E-1
3.657051200E-1,-1.144223213E-1,3.656289876E-1,-1.289549828E0,1.345256772E0
3.707222550E-1,-1.921717823E-2,2.666580081E-1,-1.499117851E0,1.522770543E0
3.757393910E-1,-2.508804202E-1,2.387821674E-3,-3.789710999E-1,4.544950841E-1
3.807565260E-1,-1.616963148E-1,-3.833851218E-2,1.533767700E0,1.542743951E0
3.857736610E-1,4.286617339E-1,-3.840023279E-2,1.445271492E0,1.507990433E0
3.907907970E-1,6.008735895E-1,-1.450071782E-1,3.336677551E-1,7.024317213E-1
3.958079320E-1,2.365677208E-1,-2.960677743E-1,8.401241302E-1,9.216447080E-1
4.008250680E-1,-4.452535510E-2,-2.543278337E-1,1.637903214E0,1.658129094E0
4.058422030E-1,1.186828017E-1,-3.427377343E-2,1.052760124E0,1.059983103E0
4.108593380E-1,2.803267837E-1,6.990563869E-2,-2.202072144E-1,3.632645334E-1
4.158764740E-1,-1.065477133E-1,7.003939152E-2,-5.876951218E-1,6.013680135E-1
4.208936090E-1,-2.753886282E-1,4.250565171E-2,-1.896028519E-1,3.370383783E-1
4.259107450E-1,-8.161471784E-2,6.386148930E-2,-4.904041290E-1,5.012339391E-1
4.309278800E-1,-9.513665736E-2,2.503901720E-2,-1.111469269E0,1.115814443E0
4.359450160E-1,-2.333120108E-1,-1.629382372E-2,-9.619941711E-1,9.900165495E-1
4.409621510E-1,-1.937216073E-1,9.452104568E-4,-2.772083282E-1,3.381913834E-1
4.459792860E-1,-3.714899719E-2,5.179575086E-2,1.675472260E-1,1.792621564E-1
4.509964220E-1,4.805912077E-2,6.905430555E-2,2.865715027E-1,2.986660382E-1
4.560135570E-1,2.552533150E-1,-3.448998630E-1,-6.418142319E-1,7.720334698E-1
4.610306930E-1,2.819160223E-1,-8.321319818E-1,-7.250445366E0,7.303483983E0
4.660478280E-1,-1.594476104E-1,-2.701120973E-1,-7.710217476E0,7.716594949E0
4.710649630E-1,3.699302375E-1,1.170184612E0,4.416042709E1,4.417747731E1
4.760820990E-1,3.292503119E0,1.158157349E0,6.416213989E0,7.304088388E0
4.810992340E-1,1.283571124E-2,-3.249781132E-1,-8.334943771E0,8.341286663E0
4.861163700E-1,-2.748596191E0,-1.542989969E0,-1.041805172E1,1.088445684E1
4.911335050E-1,-7.049178481E-1,-7.864564657E-1,-9.872767448E0,9.929096637E0
4.961506410E-1,5.076664686E-2,-4.892651141E-1,-9.610093117E0,9.622673605E0
5.011677760E-1,1.742552668E-1,-4.553118646E-1,-9.581861496E0,9.594255756E0
5.061849110E-1,6.801706553E-2,-3.635300100E-1,-9.089559555E0,9.097080482E0
5.112020470E-1,-2.646188259E0,1.209490538E0,1.350000572E1,1.380997227E1
5.162191820E-1,-2.093384743E0,1.329412460E0,6.406812668E0,6.869996050E0
5.212363180E-1,6.838474870E-1,1.706843138E0,-3.844343185E0,4.261447572E0
5.262534530E-1,1.103789687E0,1.323914528E0,-4.340859890E0,4.670563771E0
5.312705880E-1,-1.678501815E-2,4.680013657E-2,-6.897130966E0,6.897310168E0
5.362877240E-1,8.782560378E-2,-4.566957653E-1,-4.642906189E0,4.666139972E0
5.413048590E-1,1.695215702E0,-2.068797350E-1,1.834604263E1,1.842535850E1
5.463219950E-1,3.168880224E0,-8.234872222E-1,6.902185440E0,7.639378046E0
5.513391300E-1,5.354363918E-1,-4.549119473E-1,-6.076660633E0,6.117143243E0
5.563562660E-1,6.739634275E-2,-3.460284472E-1,-5.877907753E0,5.888469878E0
5.613734010E-1,-2.337572575E0,-7.312073112E-1,1.325917149E1,1.348349132E1
5.663905360E-1,-5.140957832E-1,-2.388664931E-1,8.436468124E0,8.455492067E0
5.714076720E-1,-9.545949101E-2,-2.813447714E-1,-2.884187698E0,2.899449271E0
5.764248070E-1,1.377995014E-1,-8.979940414E-1,-1.760996819E0,1.981537735E0
5.814419430E-1,4.598500580E-2,-8.192839622E-1,4.793998718E0,4.863719209E0
5.864590780E-1,1.250694990E0,-4.174623489E-1,4.909083366E0,5.083071145E0
5.914762130E-1,9.470685720E-1,-4.109430313E-2,1.533626556E0,1.802952589E0
5.964933490E-1,1.024262071E0,1.075665116E0,-6.729719162E0,6.891682540E0
6.015104840E-1,1.211308688E-1,7.775042057E-1,-5.852869034E0,5.905528038E0
6.065276200E-1,-3.033401489E0,-4.052941203E-1,1.187202454E0,3.282565702E0
6.115447550E-1,-1.130860925E0,-5.063164234E-2,-1.113294601E0,1.587713722E0
6.165618910E-1,-3.895842731E-1,5.222512484E-1,-5.181756496E0,5.222559015E0
6.215790260E-1,-2.571973205E-1,3.491566777E-1,-5.845839500E0,5.861902448E0
6.265961610E-1,-7.417222261E-1,4.148742557E-2,-3.535232067E0,3.612442226E0
6.316132970E-1,-5.162596703E-1,4.826045036E-2,7.995815277E-1,9.529867458E-1
6.366304320E-1,5.372617245E-1,3.566553295E-1,1.322227478E0,1.471101182E0
6.416475680E-1,4.747955799E-1,2.940935791E-1,5.142211914E-2,5.608619351E-1
6.466647030E-1,9.193982482E-1,-1.223300248E-1,2.881417274E0,3.027015574E0
6.516818380E-1,1.254851580E0,-2.481144667E-1,3.661602974E0,3.878601502E0
6.566989740E-1,7.506129742E-1,-2.008868307E-1,3.413096428E0,3.500428914E0
6.617161090E-1,1.638194621E-1,-5.364114642E-1,2.079746246E0,2.154047011E0
6.667332450E-1,-4.871456027E-1,-6.850649118E-1,1.604500771E0,1.811366196E0
6.717503800E-1,-3.338463008E-1,-9.854070842E-2,1.335789680E0,1.380397658E0
6.767675160E-1,5.676097274E-1,6.355755329E-1,-1.304588318E0,1.558232248E0
6.817846510E-1,3.589971662E-1,6.379228830E-1,-2.664895535E0,2.763601415E0
6.868017860E-1,-8.478416204E-1,7.531043887E-2,-1.345602989E0,1.592216845E0
6.918189220E-1,-1.216271400E0,-2.858999372E-2,-7.888031006E-1,1.449946150E0
6.968360570E-1,-5.016671419E-1,3.236069679E-1,-1.763618469E0,1.861918767E0
7.018531930E-1,1.410026252E-1,3.566786945E-1,-2.192490101E0,2.225783968E0
7.068703280E-1,8.997216821E-3,-7.043838501E-3,-9.711303711E-1,9.711975923E-1
7.118874630E-1,-2.451460660E-1,-2.127031535E-1,7.126064301E-1,7.830371315E-1
7.169045990E-1,8.563667536E-3,-1.530874819E-1,1.414021492E0,1.422310055E0
7.219217340E-1,4.458234906E-1,9.498804808E-3,1.081809998E0,1.170111825E0
7.269388700E-1,5.109115839E-1,-4.476526380E-2,7.885236740E-1,9.406402925E-1
7.319560050E-1,1.457066089E-1,-2.020777613E-1,1.433208466E0,1.454700087E0
7.369731410E-1,-2.892926335E-3,-2.341077477E-1,1.613429070E0,1.630327626E0
7.419902760E-1,2.779383659E-1,-9.199796617E-2,6.266899109E-1,6.917034086E-1
7.470074110E-1,2.935149372E-1,-1.176366210E-2,-5.691804886E-1,6.405121628E-1
7.520245470E-1,-1.929214150E-1,-5.904385448E-2,-6.971044540E-1,7.257130762E-1
7.570416820E-1,1.049162447E-1,-7.144087553E-1,-3.450485706E0,3.525228914E0
7.620588180E-1,1.809813976E-1,-6.000073552E-1,-8.888238907E0,8.910306053E0
7.670759530E-1,-1.458415747E0,4.590226114E-1,1.596522331E0,2.210556899E0
7.720930880E-1,-1.012639552E-1,1.897330523E0,3.829505539E1,3.834216197E1
7.771102240E-1,1.123490334E0,8.577110767E-1,-2.647672176E0,3.001344161E0
7.821273590E-1,6.677620858E-2,-3.041228652E-1,-9.115636826E0,9.120953049E0
7.871444950E-1,-2.172820419E-1,-4.962890744E-1,-9.664475441E0,9.679648748E0
7.921616300E-1,-1.842670441E0,-1.274995804E0,-1.008827305E1,1.033413285E1
7.971787660E-1,-5.898923278E-1,-6.506028771E-1,-9.607631683E0,9.647685921E0
8.021959010E-1,-1.707207263E-1,-4.286346436E-1,-9.567545891E0,9.578664186E0
8.072130360E-1,-1.395402253E-1,-3.936298788E-1,-9.556170464E0,9.565291939E0
8.122301720E-1,-9.286892414E-1,2.469394505E-1,7.748386383E0,7.807748353E0
8.172473070E-1,3.579255819E0,-1.490880966E0,4.821315002E1,4.836880848E1
8.222644430E-1,2.155990124E0,5.496938229E-1,-1.860218048E-1,2.232724977E0
8.272815780E-1,9.748311043E-1,2.942489684E-1,-1.103067207E1,1.107757214E1
8.322987130E-1,2.803220451E-1,-2.958303094E-1,-1.027408409E1,1.028216417E1
8.373158490E-1,8.273440599E-2,-4.410096705E-1,-9.618579865E0,9.629040093E0
8.423329840E-1,-2.999030828E0,2.986167431E0,5.760825157E0,7.148320665E0
8.473501200E-1,-2.424450159E0,1.162264585E0,4.126549721E0,4.925162956E0
8.523672550E-1,-6.133225560E-2,-2.709475756E-1,-8.028041840E0,8.032846943E0
8.573843910E-1,7.543206215E-3,-4.099481404E-1,-9.411676407E0,9.420603333E0
8.624015260E-1,-1.284910321E0,9.884479642E-2,3.525279045E0,3.753446040E0
8.674186610E-1,1.593408823E0,-5.136281252E-3,1.781478882E1,1.788590727E1
8.724357970E-1,5.273085833E-1,1.272774935E-1,-3.365178585E0,3.408618608E0
8.774529320E-1,3.171729445E-1,-3.955033720E-1,-7.167943478E0,7.185849657E0
8.824700680E-1,-4.141849279E-2,-4.250951111E-1,2.611456871E0,2.646153498E0
8.874872030E-1,9.324707389E-1,-4.674483538E-1,6.836255074E0,6.915373676E0
8.925043380E-1,-1.343318969E-1,1.440213621E-1,-5.671501160E-3,1.970263363E-1
8.975214740E-1,1.849400997E-1,-1.636593491E-1,-9.087371826E-1,9.416955400E-1
9.025386090E-1,-9.777902067E-2,1.924418807E-1,-1.624197006E0,1.638478114E0
9.075557450E-1,-5.431855321E-1,2.914839983E-2,-5.168113708E-1,7.503293574E-1
9.125728800E-1,-3.290197551E-1,5.382688642E-1,6.223382950E-1,8.861672093E-1
9.175900160E-1,1.671698093E-1,1.713543236E-1,-2.467995167E0,2.479578229E0
9.226071510E-1,-4.882028699E-1,-4.643821120E-1,-2.948361397E0,3.024372284E0
9.276242860E-1,-2.716554999E-1,-8.811123371E-1,-2.954792976E0,3.095312132E0
9.326414220E-1,-3.713526130E-1,-8.596183062E-1,-7.174512386E0,7.235362767E0
9.376585570E-1,-1.306413770E0,7.731292248E-1,1.785579300E1,1.792020618E1
9.426756930E-1,4.287032127E0,1.750312805E0,1.551454544E1,1.619084184E1
9.476928280E-1,1.074884534E0,6.689387560E-1,-6.632684708E0,6.752433802E0
9.527099630E-1,-2.827171981E-1,-4.662772715E-1,-9.345161438E0,9.361056875E0
9.577270990E-1,-2.035431623E0,-1.236142397E0,-9.184670448E0,9.488371892E0
9.627442340E-1,-1.638690948E0,-8.923475742E-1,-7.876540661E0,8.094534267E0
9.677613700E-1,-2.415070295E0,5.891407728E-1,1.866134262E1,1.882618814E1
9.727785050E-1,3.006887734E-1,-1.631398052E-1,2.223756790E0,2.249916131E0
9.777956410E-1,3.282965720E-2,-3.275998235E-1,-8.468690872E0,8.475088467E0
9.828127760E-1,1.680300385E-2,-1.284489483E-1,-9.764350891E0,9.765210177E0
9.878299110E-1,1.270390987E0,1.949651361E0,-3.952142715E0,4.586334673E0
9.928470470E-1,3.835921526E0,2.036895275E0,1.178094006E1,1.255602584E1
9.978641820E-1,5.549988747E-1,1.916009784E-1,2.496461868E-1,6.380108968E-1
1.002881318E0,-1.407528043E0,-7.861509919E-1,-3.906636238E0,4.226224707E0
1.007898453E0,-3.216856480E0,-1.610012054E0,2.812749863E0,4.566384370E0
1.012915588E0,-6.975818276E-1,-7.298420668E-1,3.540435791E0,3.681572414E0
1.017932724E0,-5.370175242E-1,-4.819220006E-1,-4.916124344E-1,8.731090549E-1
1.022949859E0,-5.356753469E-1,-4.017858505E-1,1.077095985E0,1.268272726E0
1.027966995E0,6.179324985E-1,-7.510688901E-2,7.589569092E0,7.615053553E0
1.032984130E0,1.516192913E0,-3.824117482E-1,4.572885513E0,4.832841981E0
1.038001266E0,1.857104421E0,3.385615945E-1,-7.543420792E-1,2.032853353E0
1.043018401E0,1.826037645E0,1.084821463E0,-6.003312588E0,6.367967738E0
1.048035536E0,4.492588639E-1,2.757142782E-1,-2.684988022E0,2.736240590E0
1.053052672E0,-1.429708719E0,-7.863486409E-1,4.417312622E0,4.709040455E0
1.058069807E0,-7.402338386E-1,-3.579433560E-1,4.152936935E-1,9.211614591E-1
1.063086943E0,-5.257916451E-1,4.196072221E-1,-4.318924427E0,4.370999346E0
1.068104078E0,-7.551158667E-1,7.570157051E-1,-6.135731220E0,6.228199608E0
1.073121213E0,-1.455047607E0,2.609504759E-1,-3.627847195E0,3.917465247E0
1.078138349E0,-6.138833761E-1,6.517106295E-2,1.267510414E0,1.409852019E0
1.083155484E0,4.706469476E-1,8.706945181E-2,5.373411179E-1,7.196006640E-1
1.088172620E0,3.702291250E-1,-1.591629833E-1,-9.854726791E-1,1.064687213E0
1.093189755E0,7.057799101E-1,-2.273098081E-1,2.137755394E0,2.262695993E0
1.098206891E0,9.023733735E-1,-2.370679826E-1,3.143713951E0,3.279240208E0
1.103224026E0,4.069091082E-1,-3.114858866E-1,2.752388954E0,2.799686310E0
1.108241161E0,1.668268889E-1,-2.696414590E-1,2.275871277E0,2.297852867E0
1.113258297E0,-3.719177246E-1,-1.043262631E-1,9.155216217E-1,9.936732878E-1
1.118275432E0,1.384493858E-1,1.889099777E-1,3.079137802E-1,3.868670419E-1
1.123292568E0,4.646404386E-1,3.227629066E-1,-1.092788696E0,1.230550188E0
1.128309703E0,-3.088707328E-1,2.514588833E-2,-1.654960632E0,1.683724485E0
1.133326838E0,-7.294077873E-1,-5.509170890E-2,-1.135897636E0,1.351049317E0
1.138343974E0,-4.792989194E-1,1.776387095E-1,-1.363958359E0,1.456593756E0
1.143361109E0,-3.501937985E-1,3.181563020E-1,-1.515625954E0,1.587759793E0
1.148378245E0,-2.465846688E-1,2.133762538E-1,-9.165296555E-1,9.728103792E-1
1.153395380E0,-1.322180331E-1,6.687507033E-2,-1.413192749E-1,2.047560030E-1
1.158412516E0,-2.761733532E-2,-8.588165045E-3,7.764701843E-1,7.770086363E-1
1.163429651E0,2.579330504E-1,-1.819199324E-2,9.663419724E-1,1.000338550E0
1.168446786E0,3.973341584E-1,-8.635662496E-2,7.209634781E-1,8.277199024E-1
1.173463922E0,2.378887832E-1,-1.799982786E-1,8.825807571E-1,9.316325705E-1
1.178481057E0,-1.641492546E-2,-1.712080985E-1,1.096791267E0,1.110194914E0
1.183498193E0,2.514240146E-2,-6.495264173E-2,8.326616287E-1,8.355694908E-1
1.188515328E0,1.991929114E-1,4.944401979E-2,1.768207550E-1,2.709023928E-1
1.193532463E0,-3.623411059E-2,8.801269531E-2,-2.581806183E-1,2.751660898E-1
1.198549599E0,-2.103877813E-1,6.097543240E-2,-3.531427383E-1,4.155608445E-1
1.203566734E0,-1.546998918E-1,2.065497637E-2,-5.676717758E-1,5.887358743E-1
1.208583870E0,-1.815960258E-1,8.098781109E-4,-9.016704559E-1,9.197757246E-1
1.213601005E0,-2.330195010E-1,2.085083723E-2,-8.050136566E-1,8.383196482E-1
1.218618141E0,-1.257093400E-1,3.742617369E-2,-3.642740250E-1,3.871680796E-1
1.223635276E0,-4.440811276E-2,3.531756997E-2,3.760337830E-2,6.806926830E-2
1.228652359E0,8.405178785E-3,3.315892816E-2,3.050899506E-1,3.070016930E-1
1.233669443E0,9.700545669E-2,1.997441053E-3,4.814405441E-1,4.911201950E-1
1.238686526E0,1.268928498E-1,-4.902920127E-2,5.381097794E-1,5.550385505E-1
1.243703609E0,1.029237434E-1,-8.199900389E-2,4.800338745E-1,4.977445673E-1
1.248720693E0,3.395497799E-2,-9.714163840E-2,4.029998779E-1,4.159306914E-1
1.253737776E0,4.613101482E-4,-3.693720698E-2,3.213577271E-1,3.234738920E-1
1.258754859E0,-7.733508945E-3,5.152434111E-2,1.059522629E-1,1.180696697E-1
1.263771943E0,-5.874939263E-2,1.067625582E-1,-8.049297333E-2,1.460440130E-1
1.268789026E0,-1.205077469E-1,1.004844904E-1,-2.428398132E-1,2.891200871E-1
1.273806109E0,-1.511447728E-1,7.107689977E-2,-3.715829849E-1,4.073948732E-1
1.278823193E0,-1.607311964E-1,3.764557838E-2,-4.093875885E-1,4.414180611E-1
1.283840276E0,-1.203363240E-1,9.710639715E-3,-3.324460983E-1,3.536884726E-1
1.288857359E0,-6.745265424E-2,2.521550655E-2,-1.169605255E-1,1.373515448E-1
1.293874443E0,1.816777885E-2,-9.788681567E-2,-6.914234161E-2,1.212128717E-1
1.298891526E0,3.991161287E-1,-8.825092316E-1,-5.760243416E0,5.841106097E0
1.303908609E0,4.233461618E-2,-4.897227883E-1,-9.210849762E0,9.223956525E0
1.308925693E0,-1.681629181E0,1.195914030E0,2.813220215E1,2.820778057E1
1.313942776E0,4.304087639E0,1.160378098E0,2.097693443E1,2.144535908E1
1.318959859E0,8.760464787E-1,9.119075537E-2,-6.494966507E0,6.554415543E0
1.323976943E0,-4.144899547E-2,-4.552477002E-1,-9.470497131E0,9.481523317E0
1.328994026E0,-2.996032238E0,-1.701527119E0,-1.055796719E1,1.110594772E1
1.334011109E0,-1.015822172E0,-8.727420568E-1,-9.984428406E0,1.007384653E1
1.339028193E0,-2.680397034E-2,-4.746959209E-1,-9.650580406E0,9.662285281E0
1.344045276E0,1.049722433E-1,-4.309757650E-1,-9.608739853E0,9.618972962E0
1.349062359E0,-1.851101160E0,3.552591801E-1,1.733698845E0,2.560956125E0
1.354079443E0,-3.824425220E0,2.953056991E-1,2.288739395E1,2.320659897E1
1.359096526E0,3.300439417E-1,1.401813507E0,-3.332301617E0,3.630185144E0
1.364113609E0,1.146865010E0,1.528977871E0,-7.821400642E0,8.051545236E0
1.369130693E0,7.324159145E-1,4.433689713E-1,-6.661486626E0,6.716279713E0
1.374147828E0,7.212219238E-1,1.138564646E-1,-5.961663246E0,6.006209538E0
1.379164963E0,1.020612240E0,5.818809867E-1,1.323630524E1,1.328834117E1
1.384182099E0,2.350916147E0,-4.625648260E-1,1.030668831E1,1.058152148E1
1.389199234E0,-4.985468388E-1,-5.399398804E-1,-4.431565762E0,4.492088504E0
1.394216370E0,7.774894685E-2,-6.912418604E-1,-5.406627178E0,5.451190480E0
1.399233505E0,-9.074336290E-1,-5.101056099E-1,8.421242714E0,8.485338672E0
1.404250641E0,6.028118730E-1,-6.814356148E-2,9.869538307E0,9.888165254E0
1.409267776E0,1.629704088E-1,-1.246467531E-1,1.024495125E0,1.044837991E0
1.414284911E0,2.926718891E-1,-1.087638736E0,-1.802518845E0,2.125485601E0
1.419302047E0,-1.515047401E-1,-7.257583141E-1,1.055855751E0,1.290158976E0
1.424319182E0,7.264556885E-1,-5.083892941E-1,5.704669952E0,5.773166965E0
1.429336318E0,8.631454706E-1,3.840473890E-1,1.161340714E0,1.497072060E0
1.434353453E0,1.385889530E0,1.426715970E0,-7.206905842E0,7.476342693E0
1.439370588E0,6.377199888E-1,5.395661592E-1,-5.741508484E0,5.801959849E0
1.444387724E0,-2.096329689E0,-2.965135872E-1,9.299497604E-1,2.312428384E0
1.449404859E0,-1.714088917E0,4.002088308E-2,6.097106934E-1,1.819738887E0
1.454421995E0,-4.849953353E-1,2.615622580E-1,-3.958223343E0,3.996394290E0
1.459439130E0,-6.572716236E-1,8.548578620E-2,-6.465065956E0,6.498953118E0
1.464456266E0,-1.491556406E0,-1.370666176E-1,-4.665378571E0,4.899927038E0
1.469473401E0,-8.561166525E-1,9.134957194E-2,-2.382497787E-1,8.933327622E-1
1.474490536E0,9.244551659E-1,4.734834433E-1,2.050326347E0,2.298399890E0
1.479507672E0,5.314900875E-1,2.915966213E-1,5.920209885E-1,8.473483070E-1
1.484524807E0,6.828414798E-1,-1.721609086E-1,2.273505211E0,2.380070967E0
1.489541943E0,1.381499887E0,-2.535377145E-1,3.566102982E0,3.832742332E0
1.494559078E0,9.792748690E-1,-1.474131942E-1,3.652400970E0,3.784275726E0
1.499576213E0,3.354052901E-1,-5.050603747E-1,2.160831451E0,2.244276109E0
1.504593349E0,-4.230404794E-1,-6.709794402E-1,1.671052933E0,1.849755270E0
1.509610484E0,-6.085546613E-1,-3.189806342E-1,1.722635269E0,1.854604996E0
1.514627620E0,3.009743690E-1,5.074669123E-1,-5.643053055E-1,8.164243478E-1
1.519644755E0,6.668272614E-1,8.130857944E-1,-2.915454865E0,3.099297368E0
1.524661891E0,-5.264939666E-1,2.646571100E-1,-2.007079124E0,2.091794898E0
1.529679026E0,-1.387398481E0,-1.060479283E-1,-8.180885315E-1,1.614121914E0
1.534696161E0,-8.424271941E-1,1.694167256E-1,-1.462800980E0,1.696517701E0
1.539713297E0,2.453601360E-2,3.395612240E-1,-2.284148693E0,2.309380673E0
1.544730432E0,1.163333133E-1,1.137279868E-1,-1.359161377E0,1.368863449E0
1.549747568E0,-1.810125709E-1,-1.391227692E-1,4.924383163E-1,5.427855849E-1
1.554764703E0,-5.185270309E-2,-1.454086155E-1,1.476271629E0,1.484321492E0
1.559781838E0,3.936359882E-1,-3.476062417E-2,1.186993599E0,1.251044122E0
1.564798974E0,4.804190993E-1,-5.990982056E-2,7.978887558E-1,9.332835390E-1
1.569816109E0,1.707823724E-1,-1.784267128E-1,1.313385963E0,1.336407647E0
1.574833245E0,3.573212028E-2,-2.289466709E-1,1.570224762E0,1.587230029E0
1.579850380E0,1.725900918E-1,-1.392488033E-1,9.230537415E-1,9.493185865E-1
1.584867516E0,3.507083058E-1,-2.153137326E-2,-2.253637314E-1,4.174311048E-1
1.589884651E0,-6.311257184E-2,3.553009033E-2,-7.410697937E-1,7.446005796E-1
1.594901786E0,-3.644937277E-1,7.934063673E-3,-5.149393082E-1,6.309366989E-1
1.599918922E0,-2.560591698E-1,1.945561171E-2,-6.479330063E-1,6.969662832E-1
1.604936057E0,2.213204354E-1,-6.678825617E-1,-4.138190269E0,4.197578892E0
1.609953193E0,2.846964598E-1,-6.090104580E-1,-9.125892639E0,9.150620868E0
1.614970328E0,-2.353375912E0,5.600270629E-1,1.161238003E1,1.186167688E1
1.619987463E0,2.118608475E0,1.864717245E0,2.457756424E1,2.473908519E1
1.625004599E0,1.040658474E0,6.700057983E-1,-5.343563557E0,5.485029564E0
1.630021734E0,8.623830229E-2,-3.332206607E-1,-9.325869560E0,9.332219249E0
1.635038870E0,-9.590029716E-3,-4.058119655E-1,-9.639858246E0,9.648401024E0
1.640056005E0,-4.781658947E-2,-3.728088737E-1,-9.570825577E0,9.578203125E0
1.645073141E0,-3.834025562E-2,-3.686155081E-1,-9.554444313E0,9.561629228E0
1.650090276E0,-1.222401023E0,-3.917040229E-1,-8.054485321E-1,1.515402138E0
1.655107411E0,-2.410264015E0,-2.464620113E0,2.772712135E1,2.794059741E1
1.660124547E0,-4.156391621E-1,-7.611086369E-1,-2.331479549E0,2.487536765E0
1.665141682E0,5.186037421E-1,1.669744492E0,-3.275060177E0,3.712548406E0
1.670158818E0,2.463528633E0,2.922158003E0,4.543352127E-1,3.848948065E0
1.675175953E0,1.324588537E0,7.357299328E-1,-5.409569263E0,5.617764052E0
1.680193088E0,-4.693716764E-3,-5.571873486E-2,-4.034664154E0,4.035051604E0
1.685210224E0,-2.928205490E0,-8.327041864E-1,4.449943542E0,5.391639935E0
1.690227359E0,-2.297449827E0,-9.127320051E-1,6.285222054E0,6.753915286E0
1.695244495E0,2.005536705E-1,-4.156996012E-1,-2.528119564E0,2.569905925E0
1.700261630E0,-7.793265581E-1,-5.999495983E-1,-4.510602474E0,4.616581428E0
1.705278766E0,-6.250646114E-1,-1.978987753E-1,7.790413857E0,7.817954832E0
1.710295901E0,2.132055759E0,1.500449181E-1,9.402730942E0,9.642589092E0
1.715313036E0,1.825710893E0,1.109476566E0,-4.410171986E0,4.900385236E0
1.720330172E0,8.301603794E-1,3.987013996E-1,-8.201135635E0,8.252681672E0
1.725347307E0,1.527626812E-1,-5.154573321E-1,-1.044975281E0,1.175162132E0
1.730364443E0,-1.155743957E0,-6.263864040E-1,6.929691315E0,7.053277659E0
1.735381578E0,-5.111306906E-3,2.430607975E-1,-1.083992004E0,1.110920043E0
1.740398713E0,1.145513654E-1,5.896146297E-1,-5.716659546E0,5.748126981E0
1.745415849E0,-4.415539503E-1,3.388431966E-1,-4.265686512E0,4.301844491E0
1.750432984E0,-8.813746572E-1,-3.396197557E-1,7.747793198E-1,1.221657014E0
1.755450120E0,-2.279794961E-1,5.835741758E-2,3.369865417E0,3.378072405E0
1.760467255E0,6.290559769E-1,2.349284589E-1,-6.405162811E-2,6.745408912E-1
1.765484391E0,4.908173680E-1,-5.890935659E-3,-2.001442909E0,2.060754743E0
1.770501526E0,2.806646228E-1,-4.659354091E-1,1.001110077E-1,5.530738195E-1
1.775518661E0,-1.496581286E-1,-4.526476860E-1,3.423596382E0,3.456631260E0
1.780535797E0,1.848772466E-1,-1.309877187E-1,2.582524300E0,2.592444626E0
1.785552932E0,3.068611026E-1,7.768014073E-2,1.214714050E-1,3.390475524E-1
1.790570068E0,3.761666417E-1,1.631501913E-1,-6.338386536E-1,7.548978514E-1
1.795587203E0,-2.969310284E-1,1.153396666E-1,2.905035019E-1,4.311189614E-1
1.800604338E0,-4.512346685E-1,1.624513566E-1,6.780633926E-1,8.305258176E-1
1.805621474E0,1.005677879E-2,1.721256673E-1,-1.201869011E0,1.214173589E0
1.810638609E0,-2.292420715E-1,-2.562898397E-2,-2.276253223E0,2.287911167E0
1.815655745E0,-6.041588187E-1,-5.400508642E-3,-8.339881897E-1,1.029841417E0
1.820672880E0,-2.104321718E-1,2.262589335E-1,3.528213501E-1,4.689964915E-1
1.825690016E0,4.502500594E-2,2.245389521E-1,-2.266826630E-1,3.222266622E-1
1.830707151E0,-1.300461590E-1,1.235294640E-1,-6.476602554E-1,6.720381971E-1
1.835724286E0,-1.735608876E-1,3.158316016E-2,3.906059265E-1,4.285952257E-1
1.840741422E0,7.297201455E-2,7.184720039E-2,1.475526810E0,1.479076165E0
1.845758557E0,3.139879107E-1,4.350897670E-2,7.466917038E-1,8.111904460E-1
1.850775693E0,1.817631572E-1,-1.241012961E-1,-7.677555084E-2,2.330953930E-1
1.855792828E0,-3.270915151E-2,-1.443357021E-1,3.921432495E-1,4.191408017E-1
1.860809963E0,-2.547647059E-2,-1.763725281E-2,7.075166702E-1,7.081948615E-1
1.865827099E0,5.766868591E-3,9.403982759E-2,-2.482700348E-2,9.743267443E-2
1.870844234E0,-9.735074639E-2,6.293293834E-2,-6.654214859E-1,6.754431704E-1
1.875861370E0,-2.119269073E-1,4.729714990E-2,-4.014129639E-1,4.563796687E-1
1.880878505E0,-1.385839880E-1,4.196912050E-2,-7.087898254E-2,1.612164972E-1
1.885895641E0,1.707680523E-2,-6.284117699E-4,-3.625831604E-1,3.629856201E-1
1.890912776E0,-2.596615255E-2,-6.100767851E-2,-5.918483734E-1,5.955507325E-1
1.895929911E0,-7.508452237E-2,-1.016655117E-1,-1.991539001E-1,2.358725031E-1
1.900947047E0,4.568070173E-3,-7.105466723E-2,3.461008072E-1,3.533488386E-1
1.905964182E0,8.058197796E-2,-1.734501123E-2,4.650945663E-1,4.723423126E-1
1.910981318E0,9.712520242E-2,-2.150443196E-2,3.448867798E-1,3.589465648E-1
1.915998453E0,2.022687048E-1,-5.289500356E-1,-1.114161491E0,1.249822627E0
1.921015588E0,2.547403872E-1,-8.752211928E-1,-7.745889664E0,7.799340452E0
1.926032724E0,-1.276395082E0,1.893705130E-2,1.034782410E0,1.643264329E0
1.931049859E0,1.759409666E0,1.314291358E0,3.177075577E1,3.184656663E1
1.936066995E0,1.951640368E0,1.218880773E0,-2.343163013E0,3.284049843E0
1.941084130E0,2.332206815E-1,-2.121853977E-1,-9.116618156E0,9.122068907E0
1.946101266E0,4.465228319E-2,-3.957397044E-1,-9.626171112E0,9.634405743E0
1.951118401E0,2.881710231E-2,-4.160949886E-1,-9.580249786E0,9.589324869E0
1.956135536E0,-1.594638228E-1,-5.033791065E-1,-9.539093971E0,9.553697349E0
1.961152672E0,-3.573848724E0,-3.469768465E-1,7.727972984E0,8.521405640E0
1.966169807E0,-2.192769289E0,-1.214437008E0,1.256176853E1,1.280941541E1
1.971186943E0,-1.784672737E-1,-4.634143412E-1,-6.843133926E0,6.861128577E0
1.976204078E0,6.357863545E-1,1.100699902E0,-8.461473465E0,8.556418512E0
1.981221213E0,2.473995447E0,3.284393311E0,4.976717949E0,6.455665298E0
1.986238349E0,1.854161263E0,1.016651392E0,-5.256853104E-1,2.178953668E0
1.991255484E0,-3.868307173E-1,-3.592750430E-1,-4.466434956E0,4.497527962E0
1.996272620E0,-3.431931734E0,-1.465254307E0,4.539223671E0,5.876195806E0
2.001289755E0,-1.538159728E0,-6.545928717E-1,6.273717880E0,6.492608352E0
2.006306891E0,3.562579155E-1,-3.961454034E-1,-1.970256805E0,2.041020030E0
2.011324026E0,-5.048611164E-1,-4.987295270E-1,-1.973141670E0,2.096879572E0
2.016341161E0,2.526181340E-1,-3.332540393E-1,8.148846626E0,8.159569567E0
2.021358297E0,2.007009745E0,-1.583171785E-1,7.182629585E0,7.459445033E0
2.026375432E0,1.652092814E0,-7.503226399E-3,1.770368576E0,2.421501985E0
2.031392568E0,8.075012565E-1,-6.960171461E-1,8.751621246E-1,1.379277670E0
2.036409703E0,1.093461514E-1,-5.486118793E-1,-2.431020737E-1,6.099427786E-1
2.041426838E0,7.310309410E-1,1.100669622E0,-2.646043301E0,2.957604606E0
2.046443974E0,6.273872256E-1,1.010557532E0,-2.889037132E0,3.124320215E0
2.051461109E0,-8.087809682E-1,-1.488095969E-1,-1.859995842E0,2.033680280E0
2.056478245E0,-1.896885157E0,-5.044360161E-1,-2.631083965E0,3.282564824E0
2.061495380E0,-1.502139926E0,1.092183590E-2,-3.052980423E0,3.402533337E0
2.066512516E0,-7.173202634E-1,6.375190020E-1,-3.217320919E0,3.357399698E0
2.071529651E0,-7.158513069E-1,4.519283175E-1,-4.123858452E0,4.209856391E0
2.076546786E0,-3.959038258E-1,-4.616832733E-2,-2.585978985E0,2.616516513E0
2.081563922E0,5.028479695E-1,-4.330192506E-1,-7.867975235E-1,1.029277463E0
2.086581057E0,-2.705676556E-1,-1.008624315E0,-4.187708378E0,4.315950802E0
2.091598193E0,4.116344154E-1,2.639258206E-1,1.089559937E1,1.090656615E1
2.096615328E0,4.754199505E0,3.902525008E-1,2.059048843E1,2.113582087E1
2.101632463E0,1.484345913E0,4.861749709E-1,-1.486273766E0,2.156074813E0
2.106649599E0,-4.117220640E-2,-1.838725954E-1,-8.776671410E0,8.778693827E0
2.111666734E0,-4.897972941E-1,-5.358568430E-1,-8.621011734E0,8.651525141E0
2.116683870E0,-3.760581255E0,-4.245720506E-1,6.900435448E0,7.870085271E0
2.121701005E0,-7.955724001E-2,9.871669412E-1,3.166982651E0,3.318223476E0
2.126718141E0,7.549529076E-1,1.676729620E-1,-7.697896004E0,7.736644686E0
2.131735276E0,-6.567921638E-1,-6.673136353E-1,-6.885332108E0,6.948703596E0
2.136752411E0,-1.550919533E0,-3.066130877E-1,7.935733795E-1,1.768932359E0
2.141769547E0,-4.347681999E-1,5.897484422E-1,6.889468193E0,6.928318598E0
2.146786682E0,1.209037781E0,1.416833878E0,1.131705284E0,2.179437414E0
2.151803818E0,7.117905617E-1,2.221553028E-1,-4.604474545E0,4.664459734E0
2.156820953E0,-3.948121071E-1,-6.789915562E-1,-2.169767380E0,2.307552083E0
2.161838088E0,-8.701207042E-1,-7.890017629E-1,5.656741142E0,5.777400295E0
2.166855224E0,5.868685246E-1,-3.524509072E-2,4.277255058E0,4.317472376E0
2.171872307E0,8.088572025E-1,1.382707059E-1,-1.739273071E0,1.923132751E0
2.176889391E0,5.957470536E-1,-4.597976804E-2,-2.310638905E0,2.386646358E0
2.181906474E0,-6.263574958E-1,-1.533191949E-1,1.145616531E0,1.314635967E0
2.186923557E0,-6.383336782E-1,1.505100727E-1,2.899893761E0,2.973130840E0
2.191940641E0,2.814176679E-1,3.869503438E-1,-6.996355057E-1,8.475944273E-1
2.196957724E0,1.796822995E-1,3.183460236E-2,-3.520172596E0,3.524899187E0
2.201974807E0,-6.542510390E-1,-2.998842001E-1,-1.832400322E0,1.968671099E0
2.206991891E0,-3.833135962E-1,-2.358145416E-1,6.182727814E-1,7.647215462E-1
2.212008974E0,1.428805590E-1,4.256522655E-2,4.449949265E-1,4.693049512E-1
2.217026057E0,1.762977839E-1,1.703574955E-1,-7.180938721E-1,7.587894266E-1
2.222043141E0,6.087823212E-2,-1.558086276E-2,-4.641065598E-1,4.683415647E-1
2.227060224E0,-1.423683912E-1,-2.077272385E-1,1.253101349E0,1.278155841E0
2.232077307E0,8.763266355E-2,1.311981678E-2,1.964017868E0,1.966015717E0
2.237094391E0,4.464597106E-1,2.187117934E-2,1.347103119E-1,4.668527496E-1
2.242111474E0,2.505367100E-1,-2.657368779E-1,-7.644376755E-1,8.472010924E-1
2.247128557E0,-1.821493506E-1,-3.101217449E-1,4.514436722E-1,5.771960427E-1
2.252145641E0,-1.175511926E-1,6.989866495E-3,1.087198257E0,1.093557128E0
2.257162724E0,9.491852671E-2,2.234331071E-1,-1.238603592E-1,2.725312251E-1
2.262179807E0,-1.089406610E-1,1.739172339E-1,-1.060877800E0,1.080544760E0
2.267196891E0,-3.816812336E-1,1.255982220E-1,-4.903421402E-1,6.339486509E-1
2.272213974E0,-2.709571123E-1,1.681495607E-1,1.893911362E-1,3.708922134E-1
2.277231057E0,-1.568423212E-2,8.214566112E-2,-3.274240494E-1,3.379355159E-1
2.282248141E0,-3.991670907E-2,-7.028907537E-3,-7.575998306E-1,7.586832360E-1
2.287265224E0,-1.224445999E-1,-3.808513284E-2,-8.731746674E-2,1.551370277E-1
2.292282307E0,-7.584939897E-2,2.108958364E-2,5.869350433E-1,5.921913939E-1
2.297299391E0,1.044921577E-2,1.224568188E-1,4.760856628E-1,4.916934176E-1
2.302316474E0,1.839444041E-2,1.229052842E-1,8.328247070E-2,1.495995797E-1
2.307333557E0,-7.603815198E-2,5.572548509E-2,2.744998932E-1,2.902366648E-1
2.312350641E0,-6.811006367E-2,4.971393943E-2,6.377172470E-1,6.432680185E-1
2.317367724E0,4.138167202E-2,7.204380631E-2,2.257633209E-1,2.405656457E-1
2.322384859E0,-1.932844520E-3,-5.719631910E-3,-3.674106598E-1,3.674602604E-1
2.327401995E0,-1.418290883E-1,-5.417555571E-2,-3.572940826E-1,3.882132695E-1
2.332419130E0,-1.402559429E-1,3.616905212E-2,-8.898353577E-2,1.699941161E-1
2.337436266E0,-6.413137913E-2,7.878455520E-2,-1.558246613E-1,1.860138838E-1
2.342453401E0,-8.494272828E-2,6.473329663E-2,-2.369794846E-1,2.599325737E-1
2.347470536E0,-8.727309108E-2,8.277952671E-3,-5.981636047E-2,1.061278187E-1
2.352487672E0,-1.822660863E-2,-9.692162275E-3,1.553726196E-1,1.567379922E-1
2.357504807E0,6.986317039E-2,-5.165541172E-2,9.291648865E-2,1.272109193E-1
2.362521943E0,6.281743944E-2,-9.372045100E-2,-2.921104431E-3,1.128631316E-1
2.367539078E0,2.323713899E-2,-9.320788085E-2,1.166057587E-1,1.510780482E-1
2.372556213E0,8.653745055E-3,-6.945681572E-2,2.647209167E-1,2.738180058E-1
2.377573349E0,1.435536146E-2,-1.750782132E-2,2.692155838E-1,2.701659319E-1
2.382590484E0,1.655809581E-2,1.046216488E-2,1.493864059E-1,1.506649452E-1
2.387607620E0,-9.365126491E-3,9.858965874E-3,-3.763198853E-3,1.410909167E-2
2.392624755E0,-4.045073688E-2,-9.716838598E-3,-9.456253052E-2,1.033090085E-1
2.397641891E0,-5.340507627E-2,-2.916562557E-2,-1.757078171E-1,1.859461558E-1
2.402659026E0,-8.666358888E-2,-1.017549634E-2,-1.898260117E-1,2.089211168E-1
2.407676161E0,-7.308985293E-2,4.268348217E-3,-9.396076202E-2,1.191174639E-1
2.412693297E0,-6.966736913E-2,4.759573936E-2,1.133155823E-2,8.513108092E-2
2.417710432E0,-7.097981870E-2,9.102419019E-2,8.301067352E-2,1.421770368E-1
2.422727568E0,-4.811972380E-2,8.662602305E-2,1.067800522E-1,1.456762000E-1
2.427744703E0,-5.356676877E-2,4.860213399E-2,8.749103546E-2,1.135176085E-1
2.432761838E0,2.738530934E-2,-2.673767209E-1,-5.486783981E-1,6.109731996E-1
2.437778974E0,3.264265656E-1,-8.814834356E-1,-7.028130054E0,7.090710783E0
2.442796109E0,-2.367698848E-1,-5.141127110E-1,-9.018386841E0,9.036131532E0
2.447813245E0,-1.525130153E0,1.251156688E0,3.632564545E1,3.637916893E1
2.452830380E0,3.678735495E0,1.507772684E0,1.179495239E1,1.244698258E1
2.457847516E0,2.477359474E-1,-1.475773007E-1,-7.827447891E0,7.832757666E0
2.462864651E0,-2.134467840E0,-1.235479712E0,-1.030431461E1,1.059534156E1
2.467881786E0,-8.549531698E-1,-7.742813826E-1,-9.975506783E0,1.004197153E1
2.472898922E0,-4.449102283E-2,-4.419564903E-1,-9.647006035E0,9.657226850E0
2.477916057E0,6.210927665E-2,-3.968202770E-1,-9.615320206E0,9.623705448E0
2.482933193E0,8.724021912E-2,-3.948141038E-1,-9.626608849E0,9.635096624E0
2.487950328E0,-2.456678152E0,3.715723753E-3,6.359042168E0,6.817088722E0
2.492967463E0,-4.947174549E0,-1.354043841E0,2.950638199E1,2.994886557E1
2.497984599E0,2.742822170E-1,1.405531406E0,-2.138619423E0,2.573799197E0
2.503001734E0,9.900294542E-1,1.715136886E0,-1.055447578E1,1.073865969E1
2.508018870E0,4.785681516E-2,-1.346077472E-1,-9.825830460E0,9.826868969E0
2.513036005E0,-1.121270880E-1,-4.025629163E-1,-9.619214058E0,9.628286892E0
2.518053141E0,1.174965262E0,1.254421115E0,2.844770432E0,3.323677859E0
2.523070276E0,5.223587990E0,4.457857609E-1,2.595404434E1,2.647823661E1
2.528087411E0,6.204526424E-1,-6.250799298E-1,-2.768292427E0,2.905017962E0
2.533104547E0,-1.162104309E-1,-2.671516240E-1,-8.982079506E0,8.986802941E0
2.538121682E0,-8.153085113E-1,7.649543881E-2,-3.595507145E0,3.687580664E0
2.543138818E0,1.825646609E-1,-1.041035056E0,2.279868317E1,2.282316889E1
2.548155953E0,1.256706595E0,-2.039549947E-1,1.886279106E0,2.275732404E0
2.553173088E0,-1.271389723E-1,-4.487356544E-1,-6.187499523E0,6.205052647E0
2.558190224E0,-5.620045662E-1,-8.408941031E-1,8.616628647E-1,1.328689173E0
2.563207359E0,-5.372231603E-1,1.324890852E-1,3.354340553E0,3.399670959E0
2.568224495E0,1.268095016E0,1.433577776E0,-6.298843384E0,6.583208806E0
2.573241630E0,5.559653044E-1,8.379441500E-1,-5.835148811E0,5.921166225E0
2.578258766E0,-1.397981286E0,-3.157135546E-1,-1.283602715E0,1.923970544E0
2.583275901E0,-1.877450109E0,-4.206894636E-1,-3.778934479E-1,1.960765665E0
2.588293036E0,-1.506988525E0,1.832768321E-1,-1.052388191E0,1.847194012E0
2.593310172E0,-5.391573906E-2,6.940551996E-1,-3.845517159E0,3.908020182E0
2.598327307E0,8.930861950E-1,3.859620988E-1,-3.880825996E0,4.000922407E0
2.603344443E0,1.393151432E-1,-1.755826920E-1,7.262039185E-2,2.356092362E-1
2.608361578E0,-1.317688972E-1,-4.498733580E-1,4.203329086E0,4.229388193E0
2.613378713E0,7.240815759E-1,-2.544731200E-1,4.216596603E0,4.285876528E0
2.618395849E0,7.954952717E-1,-2.001085728E-1,1.877372742E0,2.048751957E0
2.623412984E0,4.708924890E-1,-1.506822556E-1,1.320481300E0,1.410005583E0
2.628430120E0,-1.742091775E-1,-1.303654164E-1,2.132405281E0,2.143477609E0
2.633447255E0,-1.529082209E-1,5.247685313E-2,2.063671112E0,2.069993527E0
2.638464391E0,4.148667455E-1,1.098649204E-1,-7.642612457E-1,8.765158122E-1
2.643481526E0,8.608756959E-2,1.377643049E-1,-2.718315125E0,2.723164921E0
2.648498661E0,-7.089121342E-1,9.351983666E-2,-1.403780937E0,1.575405755E0
2.653515797E0,-7.236091495E-1,2.678951323E-1,-1.028696060E0,1.285921299E0
2.658532932E0,-4.136918485E-1,3.116708398E-1,-2.070186615E0,2.133999128E0
2.663550068E0,-3.912697732E-1,2.062375546E-1,-1.594720840E0,1.654920096E0
2.668567203E0,-2.687895894E-1,1.176078618E-1,-4.361286163E-1,5.256306902E-1
2.673584338E0,-4.270063341E-2,1.009279191E-1,6.684293747E-1,6.773533922E-1
2.678601474E0,2.765544951E-1,-4.079827666E-2,8.009033203E-1,8.482882863E-1
2.683618609E0,4.104338288E-1,-1.785956323E-1,4.647130966E-1,6.452213495E-1
2.688635745E0,2.074318379E-1,-1.985190660E-1,1.104753494E0,1.141454366E0
2.693652880E0,6.884824485E-2,-2.074906230E-1,1.610303879E0,1.625075697E0
2.698670016E0,7.481329888E-2,-1.243299395E-1,1.020250320E0,1.030517190E0
2.703687151E0,1.623664498E-1,-2.899840474E-2,4.023981094E-1,4.348885029E-1
2.708704286E0,1.293093264E-1,4.657042027E-2,1.154079437E-1,1.794678228E-1
2.713721422E0,-7.982397079E-2,3.679227829E-2,-1.377334595E-1,1.633892405E-1
2.718738557E0,-1.195375174E-1,4.355728626E-3,-5.771532059E-1,5.894183688E-1
2.723755693E0,-1.791950166E-1,-1.208707690E-2,-9.970569611E-1,1.013103911E0
2.728772828E0,-3.121038079E-1,1.613685489E-2,-9.766464233E-1,1.025430359E0
2.733789963E0,-2.641866803E-1,6.505799294E-2,-6.025476456E-1,6.611284366E-1
2.738807099E0,-1.008050442E-1,1.344466507E-1,-3.103475571E-1,3.529209047E-1
2.743824234E0,-2.541774511E-2,5.642658472E-2,-7.117748260E-2,9.431996215E-2
2.748841370E0,1.647584587E-1,-4.093884826E-1,-1.137871742E0,1.220449254E0
2.753858505E0,1.439238042E-1,-8.191925287E-1,-7.478165627E0,7.524277480E0
2.758875641E0,-5.269159675E-1,-2.321887165E-1,-5.154391766E0,5.186454137E0
2.763892776E0,1.099255323E0,8.192028403E-1,4.093110275E1,4.095405509E1
2.768909911E0,3.044632673E0,1.256128788E0,4.204596519E0,5.340999863E0
2.773927047E0,3.530824780E-1,-1.525950581E-1,-8.454102516E0,8.462848329E0
2.778944182E0,5.504274368E-2,-4.038543701E-1,-9.571268082E0,9.579942628E0
2.783961318E0,4.494979978E-2,-4.341694117E-1,-9.606074333E0,9.615986047E0
2.788978453E0,8.259329200E-2,-4.261200726E-1,-9.640694618E0,9.650460750E0
2.793995588E0,1.296992302E-1,-4.419307113E-1,-9.603390694E0,9.614428608E0
2.799012724E0,-3.123683453E0,3.578455150E-1,2.599802017E0,4.079757622E0
2.804029859E0,-3.447750092E0,2.980364859E-1,6.277368546E0,7.168065450E0
2.809046995E0,-1.688524485E0,2.596319020E-1,-2.446586132E0,2.984008606E0
2.814064130E0,-3.401847482E-1,1.287954688E0,9.820931435E0,9.910865108E0
2.819081266E0,5.313539505E-1,9.778411388E-1,-1.613705635E0,1.960243911E0
2.824098401E0,4.702834040E-2,-2.012917846E-1,-8.528538704E0,8.531043457E0
2.829115536E0,5.330960155E-1,-2.393063456E-1,-6.175578594E0,6.203162892E0
2.834132672E0,1.562493682E0,-1.888280660E-1,1.850404358E1,1.857085543E1
2.839149807E0,2.732232094E0,-9.415906072E-1,6.548728943E0,7.158039945E0
2.844166943E0,8.724113107E-1,-3.595614433E-1,-6.032179356E0,6.105536316E0
2.849184078E0,-1.040622592E-4,-3.583132327E-1,-3.508521557E0,3.526770747E0
2.854201213E0,-1.882808805E0,-7.103401423E-1,1.269493484E1,1.285344012E1
2.859218349E0,-5.421237946E-1,-1.195251197E-1,5.640810966E0,5.668062528E0
2.864235484E0,1.533150226E-1,2.973037064E-1,-6.105431080E0,6.114587775E0
2.869252620E0,1.071885228E0,9.206649065E-1,-9.515974045E0,9.620307887E0
2.874269755E0,-6.923210621E-2,3.293199837E-1,-3.252595425E0,3.269957451E0
2.879286891E0,-1.620131493E0,-5.214192867E-1,3.337144852E0,3.746096620E0
2.884304026E0,-5.928504467E-1,-1.265508384E-1,-7.802972794E-1,9.881045547E-1
2.889321161E0,-3.198009133E-1,-1.384147555E-1,-3.510862827E0,3.528114094E0
2.894338297E0,1.335901469E-1,5.337857008E-1,-2.039215088E0,2.112148592E0
2.899355432E0,1.914813519E-1,2.211910486E-1,1.214445114E0,1.249186745E0
2.904372568E0,2.137822956E-1,-3.579258919E-2,3.086894989E0,3.094495864E0
2.909389703E0,4.356586337E-1,-2.726230919E-1,3.517761230E-1,6.227906840E-1
2.914406838E0,1.716688275E-1,-3.972235024E-1,-8.732404709E-1,9.745797131E-1
2.919423974E0,9.759967029E-2,-4.776824415E-1,2.207688332E0,2.260883451E0
2.924441109E0,2.135719806E-1,-1.470544785E-1,2.683408737E0,2.695908096E0
2.929458245E0,2.798845768E-1,1.183428466E-1,7.244949341E-1,7.856419765E-1
2.934475380E0,2.714637220E-1,1.780309379E-1,-4.475240707E-1,5.528701123E-1
2.939492516E0,-3.473761678E-1,6.621044874E-2,-5.563249588E-1,6.592051921E-1
2.944509651E0,-6.348405480E-1,2.466096282E-1,2.675361633E-1,7.317201848E-1
2.949526786E0,-8.261629939E-2,2.992062867E-1,-8.945178986E-1,9.468432424E-1
2.954543922E0,-5.502128601E-2,1.018059552E-1,-2.428438663E0,2.431194385E0
2.959561057E0,-5.853105783E-1,-9.239587188E-2,-1.344747543E0,1.469514010E0
2.964578193E0,-4.049441218E-1,1.068785787E-1,2.347602844E-1,4.801199470E-1
2.969595328E0,1.012552604E-1,2.684261203E-1,1.479196548E-1,3.227776853E-1
2.974612411E0,2.436450124E-2,1.633110642E-1,-4.744453430E-1,5.023569609E-1
2.979629495E0,-2.020589858E-1,4.387146235E-2,1.187877655E-1,2.384597916E-1
2.984646578E0,-6.107041240E-2,3.224155307E-2,1.505317688E0,1.506900944E0
2.989663661E0,2.801735699E-1,2.755200863E-2,1.331212044E0,1.360654933E0
2.994680745E0,3.012375236E-1,-7.381007075E-2,3.358173370E-2,3.119610632E-1
2.999697828E0,1.889944077E-3,-1.611634642E-1,6.240081787E-2,1.728325668E-1
3.004714911E0,-9.436787665E-2,-9.677408636E-2,7.082042694E-1,7.209880770E-1
3.009731995E0,5.211666226E-3,5.736440420E-2,2.532815933E-1,2.597487283E-1
3.014749078E0,-4.446156323E-2,9.242722392E-2,-6.793451309E-1,6.870439791E-1
3.019766161E0,-2.251171321E-1,3.329935670E-2,-7.070159912E-1,7.427369535E-1
3.024783245E0,-2.129457742E-1,4.228278995E-2,-1.704330444E-1,2.760093471E-1
3.029800328E0,-1.852221787E-2,2.827525139E-2,-2.324457169E-1,2.348905568E-1
3.034817411E0,2.908392251E-2,-4.658836126E-2,-6.579532623E-1,6.602415053E-1
3.039834495E0,-9.719152749E-2,-1.203217059E-1,-4.230194092E-1,4.504097318E-1
3.044851578E0,-6.143899262E-2,-8.423030376E-2,2.516021729E-1,2.723474752E-1
3.049868661E0,7.059008628E-2,-4.428184032E-2,5.141420364E-1,5.208511066E-1
3.054885745E0,9.983360767E-2,-9.836941957E-3,3.938331604E-1,4.064087510E-1
3.059902828E0,2.132973075E-1,-4.882914722E-1,-1.094003677E0,1.216868255E0
3.064919911E0,1.026368737E-1,-9.060407877E-1,-7.324054718E0,7.380597655E0
3.069936995E0,-1.199120760E0,-5.509725213E-2,1.087844849E0,1.619979234E0
3.074954078E0,1.692745209E0,1.135323286E0,3.005423737E1,3.012327222E1
3.079971161E0,1.814027786E0,1.311206937E0,-1.934083939E0,2.958148259E0
3.084988245E0,2.038244605E-1,-1.925621480E-1,-9.085792542E0,9.090118299E0
3.090005328E0,3.314253688E-2,-4.006978571E-1,-9.590510368E0,9.598934645E0
3.095022411E0,4.498827457E-2,-4.215404093E-1,-9.573214531E0,9.582596554E0
3.100039495E0,-7.950253487E-1,-7.197502851E-1,-9.331078529E0,9.392504048E0
3.105056578E0,-4.479768753E0,-3.042606115E-1,1.697903061E1,1.756269863E1
3.110073661E0,-1.044194341E0,-6.736922860E-1,3.823854446E0,4.020704658E0
3.115090745E0,-1.049868166E-1,-4.165034294E-1,-8.253044128E0,8.264214102E0
3.120107828E0,4.432838261E-1,9.873102903E-1,-8.803076744E0,8.869354110E0
3.125124911E0,2.546315908E0,3.262124538E0,4.975092888E0,6.471223258E0
3.130142047E0,2.402559757E0,8.921145201E-1,7.303609848E-1,2.664880649E0
3.135159182E0,-6.993731856E-2,-2.184194475E-1,-2.953701973E0,2.962592383E0
3.140176318E0,-2.652948618E0,-1.016899586E0,3.812011719E0,4.754330077E0
3.145193453E0,-1.871723056E0,-8.144377470E-1,5.251089096E0,5.633879013E0
3.150210588E0,1.240836531E-1,-4.167698622E-1,-2.106803894E0,2.151212802E0
3.155227724E0,-9.063819647E-1,-4.817448258E-1,-1.817918777E0,2.087686525E0
3.160244859E0,-3.016748428E-1,-3.847700655E-1,7.002834320E0,7.019882067E0
3.165261995E0,1.495625854E0,-1.697624773E-1,8.079963684E0,8.218973727E0
3.170279130E0,1.493117452E0,-3.001404405E-1,1.509063721E0,2.144004972E0
3.175296266E0,1.119705915E0,-4.944418669E-1,8.290719986E-1,1.478368856E0
3.180313401E0,9.632925987E-1,-7.509695292E-1,9.825162888E-1,1.567554185E0
3.185330536E0,8.952010274E-1,6.135830879E-1,-1.465444565E0,1.823567070E0
3.190347672E0,5.210368633E-1,1.052470684E0,-1.466031075E0,1.878409185E0
3.195364807E0,-2.249568701E-1,3.046140075E-2,-1.045515060E0,1.069876269E0
3.200381943E0,-1.146795988E0,-2.637842000E-1,-2.051035881E0,2.364629216E0
3.205399078E0,-1.968541622E0,-2.806245387E-1,-3.601198673E0,4.113701269E0
3.210416213E0,-3.302273154E-1,-1.593199223E-1,-4.949586868E0,4.963148505E0
3.215433349E0,-2.620632052E-1,-6.041337252E-1,-6.306717873E0,6.341005047E0
3.220450484E0,-2.765037537E0,4.206622243E-1,-8.745002747E-2,2.798220290E0
3.225467620E0,-3.977032602E-1,2.412854433E0,4.453138351E0,5.080401123E0
3.230484755E0,1.343014598E0,1.085258126E0,-5.020353317E0,5.308994334E0
3.235501891E0,2.903038859E-1,-4.605810642E-1,-6.882125854E0,6.903627129E0
3.240519026E0,-2.253088653E-1,-7.552772164E-1,-3.346150875E0,3.437722129E0
3.245536161E0,1.187880993E0,-2.633402348E-1,1.212798309E1,1.218886308E1
3.250553297E0,2.681944609E0,-1.752748340E-1,7.320291519E0,7.798090540E0
3.255570432E0,5.595240593E-1,-2.489839792E-1,-9.722871780E-1,1.149087704E0
3.260587568E0,-3.763656318E-1,-9.744412303E-1,-2.118923187E0,2.362418734E0
3.265604703E0,-1.513430476E0,-5.824847221E-1,1.312838554E0,2.086457603E0
3.270621838E0,-1.084635854E0,-3.356502652E-1,9.025546074E0,9.096679502E0
3.275638974E0,3.528549373E-1,6.793567538E-2,4.806282043E0,4.819695939E0
3.280656109E0,-5.626584589E-2,-3.428265154E-1,-2.458548069E0,2.482972910E0
3.285673245E0,-6.303600967E-3,-6.473155618E-1,6.878871918E-1,9.445877199E-1
3.290690380E0,1.364754558E0,7.427842021E-1,3.587131500E-1,1.594665638E0
3.295707516E0,1.489843130E0,1.686557293E0,-3.336813450E0,4.024727575E0
3.300724651E0,2.726349235E-1,2.750154734E-1,-2.058648109E0,2.094754246E0
3.305741786E0,-2.423934937E0,-1.080560803E0,-8.970470428E-1,2.801386375E0
3.310758922E0,-2.201465130E0,-3.796056807E-1,-1.846517563E0,2.898305764E0
3.315776057E0,-6.820781231E-1,1.031618118E0,-2.571065426E0,2.853041173E0
3.320793193E0,6.728863716E-1,1.002075911E0,-5.754050255E0,5.879287928E0
3.325810328E0,-4.230841100E-1,4.851856828E-2,-4.462195873E0,4.482470996E0
3.330827463E0,-5.915780663E-1,-2.412683517E-1,1.481176376E0,1.613089732E0
3.335844599E0,9.436950833E-2,-1.675685197E-1,2.247685432E0,2.255897741E0
3.340861734E0,6.980648041E-1,-1.306288689E-1,2.277299881E0,2.385467065E0
3.345878870E0,1.242280006E0,-2.733687162E-1,2.168684006E0,2.514195773E0
3.350896005E0,7.889742851E-1,-3.823270798E-1,1.692327499E0,1.905945116E0
3.355913141E0,4.869402051E-1,-4.849845469E-1,3.732516289E0,3.795260020E0
3.360930276E0,-6.252758205E-3,-3.236801624E-1,2.408517838E0,2.430178207E0
3.365947411E0,-2.262709886E-1,-1.714709252E-1,2.686605453E-1,3.908699619E-1
3.370964547E0,4.660542309E-1,1.383453608E-3,-1.399732590E0,1.475282950E0
3.375981682E0,3.882393241E-3,1.406013072E-1,-1.626606941E0,1.632676925E0
3.380998818E0,-6.052180529E-1,1.827938855E-1,-7.247810364E-1,9.617744261E-1
3.386015953E0,-5.105545521E-1,1.321322918E-1,-1.780504227E0,1.856965319E0
3.391033088E0,-5.392634273E-1,1.520133317E-1,-2.275815487E0,2.343768168E0
3.396050224E0,-4.723650217E-1,2.184767127E-1,-1.015710831E0,1.141284048E0
3.401067359E0,-8.135992289E-2,1.818714440E-1,-2.355985641E-1,3.085503891E-1
3.406084495E0,3.984396160E-2,2.174940705E-2,8.920288086E-2,1.000886204E-1
3.411101630E0,3.923930228E-2,-6.201851368E-2,5.093612671E-1,5.146211415E-1
3.416118766E0,2.022555470E-1,-6.588080525E-2,9.530839920E-1,9.765329911E-1
3.421135901E0,1.903375238E-1,-6.738513708E-2,1.391669273E0,1.406240554E0
3.426153036E0,7.563575357E-2,-5.286756158E-2,1.117334366E0,1.121138632E0
3.431170172E0,-3.914862871E-3,-7.692962885E-3,7.335300446E-1,7.335808300E-1
3.436187307E0,1.688612998E-2,5.416676402E-2,7.425212860E-1,7.446858666E-1
3.441204443E0,8.382162452E-2,1.484449804E-1,3.977041245E-1,4.327014531E-1
3.446221578E0,-6.338621676E-2,1.527804434E-1,-3.818702698E-1,4.161545137E-1
3.451238713E0,-2.699769139E-1,7.273769379E-2,-8.449096680E-1,8.899722766E-1
3.456255849E0,-3.528907299E-1,7.071000338E-2,-8.005838394E-1,8.777620724E-1
3.461272984E0,-3.231371045E-1,1.320469975E-1,-7.517185211E-1,8.288152586E-1
3.466290120E0,-2.084083855E-1,1.519751251E-1,-7.700519562E-1,8.121025237E-1
3.471307255E0,-1.406438053E-1,1.116761863E-1,-5.159082413E-1,5.462724265E-1
3.476324391E0,-7.961072028E-2,2.458748221E-2,-2.780437469E-2,8.783788657E-2
3.481341526E0,1.487264037E-2,-2.896800637E-2,3.449268341E-1,3.464604764E-1
3.486358661E0,1.064731777E-1,-7.834812999E-2,4.159708023E-1,4.364707040E-1
3.491375797E0,1.536088884E-1,-1.143016070E-1,4.535474777E-1,4.923066753E-1
3.496392932E0,1.089243889E-1,-1.230688840E-1,6.107549667E-1,6.324809105E-1
3.501410068E0,8.705048263E-2,-1.000589281E-1,6.674518585E-1,6.805009618E-1
3.506427203E0,9.700758755E-2,-4.006206989E-2,4.850502014E-1,4.962752657E-1
3.511444338E0,5.668129027E-2,3.691315651E-4,1.690263748E-1,1.782773690E-1
3.516461474E0,-1.156543195E-2,-6.430879235E-2,-1.800651550E-1,1.915537524E-1
3.521478609E0,2.187224329E-1,-7.232171297E-1,-3.661205769E0,3.738356617E0
3.526495745E0,1.437131763E-1,-5.931251645E-1,-9.055780411E0,9.076321380E0
3.531512880E0,-1.837822914E0,3.704973757E-1,6.326316833E0,6.598268413E0
3.536530016E0,1.330712318E0,1.518883348E0,3.300967026E1,3.307137935E1
3.541547151E0,1.248117685E0,9.358811378E-1,-3.722202301E0,4.035896583E0
3.546564286E0,8.936893195E-2,-3.097249568E-1,-9.246178627E0,9.251796342E0
3.551581422E0,-5.350683928E-1,-6.667000651E-1,-9.765650749E0,9.802995548E0
3.556598557E0,-1.558678508E0,-1.213341475E0,-9.801426888E0,9.998482148E0
3.561615693E0,-5.200228691E-1,-6.402223110E-1,-9.440184593E0,9.476148666E0
3.566632828E0,-8.107002079E-2,-4.219095707E-1,-9.576738358E0,9.586370408E0
3.571649963E0,-1.181121349E0,-8.922539651E-2,6.393895149E0,6.502684368E0
3.576667099E0,-2.308183193E0,-1.283041477E0,2.452528000E1,2.466704814E1
3.581684234E0,1.674245000E-1,1.399279833E0,-1.258586884E0,1.889459171E0
3.586701370E0,1.681252718E0,2.347617388E0,-5.982425690E0,6.642840901E0
3.591718505E0,1.340648890E0,8.485177755E-1,-6.348799706E0,6.544049172E0
3.596735641E0,6.374406815E-1,-3.233943880E-2,-5.762854576E0,5.798091869E0
3.601752776E0,-1.812933207E0,-5.750985146E-1,3.889825821E0,4.329920326E0
3.606769911E0,-1.399702072E0,-4.594662488E-1,9.948231697E0,1.005671860E1
3.611787047E0,4.896942377E-1,-3.766342103E-1,-5.241594315E-1,8.101832413E-1
3.616804182E0,-3.562430441E-1,-4.811490178E-1,-5.000237465E0,5.035949582E0
3.621821318E0,1.756143570E-1,-5.465598106E-1,5.651776314E0,5.680857640E0
3.626838453E0,2.708876371E0,-1.093311757E-1,1.098739529E1,1.131692625E1
3.631855588E0,2.025389671E0,5.246590376E-1,1.658746719E0,2.670002080E0
3.636872724E0,9.790091515E-1,3.262229264E-1,-4.539833546E0,4.655638403E0
3.641889859E0,2.653391361E-1,-1.368540972E-1,-4.250108242E0,4.260581412E0
3.646906995E0,-1.808060765E0,-1.011923254E-1,1.223575592E0,2.185511576E0
3.651924130E0,-6.672397256E-1,2.638294101E-1,-4.600028992E-1,8.523012826E-1
3.656941266E0,-1.037483215E-1,3.040964901E-1,-5.432762623E0,5.442255792E0
3.661958401E0,-1.357197285E0,-1.196671724E-1,-5.651153564E0,5.813075031E0
3.666975536E0,-1.787558556E0,7.647463679E-2,-2.321437359E0,2.930918861E0
3.671992672E0,-7.527662814E-2,5.392048359E-1,1.658746719E0,1.745809012E0
3.677009807E0,8.187563419E-1,4.392017722E-1,6.841535568E-1,1.153831111E0
3.682026943E0,4.516076446E-1,-1.266873330E-1,-1.718835831E0,1.781683406E0
3.687044078E0,4.278125763E-1,-4.961006343E-1,1.037013054E0,1.226595090E0
3.692061213E0,9.128017426E-1,-6.814661026E-1,4.803793907E0,4.937007087E0
3.697078349E0,7.208424211E-1,-2.406850755E-1,3.626102448E0,3.704883542E0
3.702095484E0,2.369877547E-1,-3.928800523E-1,2.196818352E0,2.244221202E0
3.707112620E0,-3.892783821E-1,-2.103771716E-1,4.396448135E-1,6.237658015E-1
3.712129755E0,-2.808301151E-1,1.383821368E-1,6.122045517E-1,6.876115055E-1
3.717146838E0,3.280667067E-1,5.466328859E-1,1.007585526E-1,6.454359472E-1
3.722163922E0,1.725146025E-1,3.087037504E-1,-2.146172523E0,2.175112823E0
3.727181005E0,-6.394996643E-1,-9.745040536E-2,-2.678493977E0,2.755501113E0
3.732198088E0,-1.041317940E0,-8.974966407E-2,-1.584585190E0,1.898238204E0
3.737215172E0,-5.590438247E-1,3.226073086E-1,-1.109466553E0,1.283558142E0
3.742232255E0,-4.770240188E-2,4.042945802E-1,-1.056142807E0,1.131886591E0
3.747249338E0,-6.574688852E-2,1.879084110E-1,-8.595390320E-1,8.822922258E-1
3.752266422E0,-2.796420455E-1,5.112618208E-3,2.168540955E-1,3.539089024E-1
3.757283505E0,-3.132534027E-2,-1.240700483E-2,1.755979538E0,1.756302750E0
3.762300588E0,4.432501793E-1,2.993881702E-2,1.332599640E0,1.404702408E0
3.767317672E0,4.384053349E-1,-1.157254428E-1,2.451782227E-1,5.154648161E-1
3.772334755E0,-8.415043354E-3,-2.681147158E-1,9.335689545E-1,9.713430427E-1
3.777351838E0,-1.583052129E-1,-1.514557749E-1,1.578248024E0,1.593382006E0
3.782368922E0,1.065381467E-1,3.378242254E-2,7.875556946E-1,7.954467932E-1
3.787386005E0,2.787914872E-1,1.134805977E-1,-4.946603775E-1,5.790435463E-1
3.792403088E0,-1.742048115E-1,7.518461347E-2,-6.609754562E-1,6.876689583E-1
3.797420172E0,-3.809716105E-1,5.725127459E-2,-1.624002457E-1,4.180800357E-1
3.802437255E0,-1.061557233E-1,6.428700686E-2,-6.115236282E-1,6.239895870E-1
3.807454338E0,-1.347656250E-1,1.137641072E-2,-1.308984756E0,1.315952997E0
3.812471422E0,-2.979089022E-1,-2.006092668E-2,-9.679841995E-1,1.012988433E0
3.817488505E0,-1.495135427E-1,1.184886694E-2,-1.779832840E-1,2.327503909E-1
3.822505588E0,5.987063050E-3,2.958187461E-2,1.279668808E-1,1.314779632E-1
3.827522672E0,9.187847376E-3,-5.313813686E-3,1.896638870E-1,1.899606359E-1
3.832539755E0,8.254488558E-2,-4.526159167E-2,4.617862701E-1,4.712842339E-1
3.837556838E0,1.501345038E-1,-8.151502907E-2,8.054122925E-1,8.233310574E-1
3.842573922E0,1.497895420E-1,-1.097127646E-1,6.752643585E-1,7.003254611E-1
3.847591005E0,7.161623240E-2,-1.440050751E-1,2.823467255E-1,3.249400249E-1
3.852608088E0,-8.652120829E-3,-1.411362737E-1,1.865129471E-1,2.340542381E-1
3.857625172E0,1.455809176E-1,-6.043888927E-1,-2.706832886E0,2.777305170E0
3.862642255E0,9.191541374E-2,-7.149686813E-1,-8.695536613E0,8.725364500E0
3.867659338E0,-2.030705929E0,2.556238770E-1,7.547083855E0,7.819692120E0
3.872676422E0,1.887118936E0,1.829370022E0,2.708892441E1,2.721612827E1
3.877693557E0,1.418988466E0,1.295798659E0,-4.479959965E0,4.874696269E0
3.882710693E0,1.504525989E-1,-2.329604179E-1,-9.261569023E0,9.265720010E0
3.887727828E0,2.866056561E-2,-3.991653323E-1,-9.670811653E0,9.679088409E0
3.892744963E0,1.744721830E-2,-3.973743916E-1,-9.586858749E0,9.595106643E0
3.897762099E0,4.441751540E-2,-3.811475337E-1,-9.588997841E0,9.596672650E0
3.902779234E0,-2.432025909E0,-3.847767711E-1,8.428771973E0,8.781059170E0
3.907796370E0,-3.223984241E0,-2.227554798E0,1.769516754E1,1.812388008E1
3.912813505E0,-3.914937675E-1,-6.144863367E-1,-6.263669014E0,6.305902818E0
3.917830641E0,6.861994267E-1,1.451785326E0,-9.355044365E0,9.491859952E0
3.922847776E0,2.222874641E0,3.168388605E0,-2.290748119E0,4.497486517E0
3.927864911E0,2.012383223E0,1.434687495E0,-4.960584641E-1,2.520731728E0
3.932882047E0,2.358409613E-1,3.047488630E-2,-1.706340790E0,1.722831556E0
3.937899182E0,-2.358301163E0,-9.894666672E-1,1.925025940E0,3.200992585E0
3.942916318E0,-2.117907047E0,-9.399389625E-1,6.417387962E0,6.822894091E0
3.947933453E0,2.979595959E-1,-4.201622009E-1,-1.912460327E-1,5.494463039E-1
3.952950588E0,-5.736855268E-1,-6.069304347E-1,-4.012820244E0,4.098805429E0
3.957967724E0,-3.194302022E-1,-3.269487023E-1,6.264596939E0,6.281250347E0
3.962984859E0,2.076368809E0,-2.886258364E-1,1.035545635E1,1.056551412E1
3.968001995E0,1.516030908E0,-9.451495111E-2,1.830151558E0,2.378389689E0
3.973019130E0,9.914289117E-1,-5.434633493E-1,-2.902507782E-1,1.167274267E0
3.978036266E0,3.632463217E-1,-1.012051702E0,1.384762764E0,1.753215460E0
3.983053401E0,-5.030607432E-2,-6.047462225E-1,4.244361877E0,4.287523346E0
3.988070536E0,-4.362135231E-1,-3.577529490E-1,3.294428825E0,3.342383984E0
3.993087672E0,4.817049503E-1,1.010671377E0,-4.473657131E0,4.611627090E0
3.998104807E0,1.308144093E0,1.156429291E0,-8.186250687E0,8.370380516E0
4.003121943E0,-7.001200914E-1,4.412449598E-1,-2.975138664E0,3.088092506E0
4.008139078E0,-1.978842378E0,-1.771454960E-1,7.891216278E-1,2.137734929E0
4.013156213E0,-1.074714899E0,-7.112124562E-2,-2.200607777E0,2.450049986E0
4.018173349E0,-9.477248192E-1,-1.026203036E-1,-4.910261154E0,5.001937411E0
4.023190484E0,-1.388255715E0,-3.076756001E-2,-4.944025040E0,5.135327075E0
4.028207620E0,-1.041456103E0,2.764212191E-1,-3.065521240E0,3.249378399E0
4.033224755E0,8.414952159E-1,5.481678247E-1,7.042446136E-1,1.226606146E0
4.038241891E0,6.362328529E-1,3.903558850E-1,1.696008682E0,1.853001730E0
4.043259026E0,3.850677311E-1,-1.712841839E-1,2.687303543E0,2.720149952E0
4.048276161E0,1.212243915E0,-4.040192366E-1,3.668451309E0,3.884623773E0
4.053293297E0,1.452157736E0,-4.683940113E-2,3.094527245E0,3.418633482E0
4.058310432E0,5.602255464E-1,-4.161180556E-1,2.478648186E0,2.575015287E0
4.063327568E0,-1.437923610E-1,-6.269333363E-1,2.246529579E0,2.336796269E0
4.068344703E0,-7.573890686E-1,-5.130464435E-1,2.335522652E0,2.508290436E0
4.073361838E0,-3.943523765E-1,2.279022932E-1,6.264791489E-1,7.745510803E-1
4.078378974E0,7.663470507E-1,7.714594603E-1,-2.979069710E0,3.171323673E0
4.083396109E0,9.634868801E-2,6.079515815E-1,-3.031747818E0,3.093603567E0
4.088413245E0,-1.266177177E0,2.655267715E-2,-6.599941254E-1,1.428111317E0
4.093430380E0,-1.162710667E0,4.626274109E-3,-1.266395569E0,1.719207734E0
4.098447516E0,-4.167733788E-1,1.963041425E-1,-2.628217220E0,2.668288051E0
4.103464651E0,3.887884319E-2,2.461739182E-1,-1.937060356E0,1.953027390E0
4.108481786E0,-3.473095596E-2,8.143931627E-3,-8.955097198E-2,9.639470684E-2
4.113498922E0,-1.377295703E-1,-6.319117546E-2,1.114906311E0,1.125157163E0
4.118516057E0,2.026411742E-1,-7.942901552E-2,9.215993881E-1,9.469518711E-1
4.123533193E0,3.449285030E-1,-1.024442762E-1,9.630994797E-1,1.028120183E0
4.128550328E0,3.108861446E-1,-1.903482825E-1,1.612151146E0,1.652850260E0
4.133567463E0,1.950854659E-1,-2.579638064E-1,1.509785652E0,1.544038983E0
4.138584599E0,1.287868768E-1,-2.476714402E-1,1.010805130E0,1.048643988E0
4.143601734E0,1.813874245E-1,-2.110342681E-1,4.552116394E-1,5.335302210E-1
4.148618870E0,3.594768643E-1,-8.362228870E-1,-3.452054501E0,3.570038180E0
4.153636005E0,1.865863204E-1,-7.006748915E-1,-9.013916969E0,9.043033721E0
4.158653141E0,-2.364783525E0,7.388011217E-1,1.352783203E1,1.375282763E1
4.163670276E0,1.270842075E0,2.020627737E0,1.813128281E1,1.828773885E1
4.168687411E0,6.834056377E-1,6.718576550E-1,-6.511406898E0,6.581554206E0
4.173704547E0,5.519658327E-2,-3.126428127E-1,-9.396951675E0,9.402313172E0
4.178721682E0,-1.628184319E-2,-3.999556005E-1,-9.648546219E0,9.656845951E0
4.183738818E0,-1.584704220E-2,-3.961062729E-1,-9.565006256E0,9.573217640E0
4.188755953E0,-5.514317155E-1,-5.500057936E-1,-9.199365616E0,9.232275507E0
4.193773088E0,-2.702557087E0,-1.345396399E0,2.354722214E1,2.373995739E1
4.198790224E0,-1.090279579E0,-1.643560886E0,8.060526848E0,8.298318806E0
4.203807359E0,-7.278610766E-2,-1.872341782E-1,-8.022977829E0,8.025492365E0
4.208824495E0,9.572783113E-1,2.325630665E0,-8.687212944E0,9.043926608E0
4.213841630E0,1.833963037E0,2.326421261E0,-4.019843102E0,4.993475229E0
4.218858766E0,1.777462602E0,1.094570875E0,-4.246406555E-1,2.130206184E0
4.223875901E0,-1.835987717E-1,-1.298666447E-1,2.722064972E0,2.731338786E0
4.228893036E0,-2.575758696E0,-9.172063470E-1,2.938264847E0,4.013626870E0
4.233910172E0,-1.449399590E0,-6.296649575E-1,3.967043877E0,4.270207753E0
4.238927307E0,2.710397243E-1,-4.435861707E-1,-1.457134247E0,1.547084819E0
4.243944443E0,-1.048974156E0,-5.421051383E-1,-2.957546234E0,3.184541488E0
4.248961578E0,1.539327800E-1,-2.049485445E-1,8.930321693E0,8.933999371E0
4.253978713E0,2.080632925E0,-7.205350697E-2,8.890814781E0,9.131309465E0
4.258995849E0,1.126668215E0,-3.319166303E-1,2.241783142E-1,1.195744886E0
4.264012984E0,9.487552643E-1,-6.449357271E-1,-4.399232864E-1,1.228662338E0
4.269030120E0,5.245480537E-1,-8.868458271E-1,2.273669243E0,2.496240775E0
4.274047255E0,3.017827272E-1,2.831321955E-1,1.062924385E0,1.140633553E0
4.279064391E0,8.989498019E-1,1.417052984E0,-2.694939137E0,3.174719965E0
4.284081526E0,8.558374047E-1,4.476075768E-1,-4.032902718E0,4.146940382E0
4.289098661E0,-1.336668253E0,-2.631549239E-1,-2.375641346E0,2.738540549E0
4.294115797E0,-2.114869595E0,-3.197181821E-1,-1.601088524E0,2.671774238E0
4.299132932E0,-1.665802956E0,2.324870825E-1,-2.411719799E0,2.940296264E0
4.304150068E0,-4.497087896E-1,4.773985147E-1,-5.178740025E0,5.220104939E0
4.309167203E0,-5.094450116E-1,5.415257812E-2,-5.743347168E0,5.766151525E0
4.314184338E0,-1.288484812E0,-3.427914977E-1,-2.352719784E0,2.704253964E0
4.319201474E0,1.982719600E-1,1.375757158E-1,2.434885025E0,2.446815059E0
4.324218609E0,8.282687068E-1,4.211593568E-1,2.104730606E0,2.300716232E0
4.329235745E0,8.481757045E-1,-4.158699512E-2,2.038754463E0,2.208540528E0
4.334252880E0,1.411190391E0,-2.925773561E-1,2.121640205E0,2.564842488E0
4.339270016E0,1.037435412E0,-2.060126215E-1,3.333449364E0,3.497227201E0
4.344287151E0,5.126792192E-1,-3.250111639E-1,3.458522797E0,3.511388924E0
4.349304286E0,-2.338711470E-1,-5.594450235E-1,2.201729774E0,2.283700604E0
4.354321422E0,-5.197679996E-1,-9.428164959E-1,-6.695823669E-1,1.267833690E0
4.359338557E0,-1.878760159E-1,-9.725306630E-1,-7.673870087E0,7.737531609E0
4.364355693E0,-1.593550682E0,1.941406727E-1,2.073907852E0,2.622630008E0
4.369372828E0,9.567655325E-1,2.937965393E0,2.184309006E1,2.206054451E1
4.374389963E0,1.374747634E0,1.596468687E0,-4.544496059E0,5.009100494E0
4.379407099E0,1.755948961E-1,-1.873607785E-1,-9.249318123E0,9.252881895E0
4.384424234E0,7.952162623E-2,-3.784581423E-1,-9.639123917E0,9.646878466E0
4.389441370E0,-3.988813758E-1,-5.832796097E-1,-9.502134323E0,9.528372272E0
4.394458505E0,-2.530376673E0,-8.502919078E-1,-5.548827648E0,6.157539338E0
4.399475641E0,-4.293254375E0,-9.493674636E-1,2.341007805E1,2.381942665E1
4.404492776E0,-8.990666270E-1,-1.504220009E0,1.293375969E0,2.178031228E0
4.409509911E0,-9.945464134E-2,-4.861560166E-1,-8.546847343E0,8.561240471E0
4.414526995E0,8.442951441E-1,1.682687521E0,-9.899246216E0,1.007667342E1
4.419544078E0,2.314188957E0,3.126941442E0,-3.169251442E0,5.017707446E0
4.424561161E0,2.488204002E0,1.264557004E0,3.286037445E-1,2.810381468E0
4.429578245E0,1.555502415E0,3.626391590E-1,1.336094856E0,2.082365094E0
4.434595328E0,-1.740896225E0,-8.365145922E-1,1.099476814E0,2.222459357E0
4.439612411E0,-2.201947927E0,-1.106391430E0,3.995750427E0,4.694539184E0
4.444629495E0,-1.092851609E-1,-6.324008703E-1,1.551065445E0,1.678594091E0
4.449646578E0,-6.514362097E-1,-5.906238556E-1,-2.669538021E0,2.810629631E0
4.454663661E0,-3.774303198E-1,-4.087266326E-1,4.095919609E0,4.133529793E0
4.459680745E0,2.156774759E0,-5.524599552E-1,1.148450279E1,1.169832013E1
4.464697828E0,1.414479733E0,-1.658964157E-1,2.111104012E0,2.546573125E0
4.469714911E0,1.088757515E0,-7.924928665E-1,2.103908539E0,2.497972980E0
4.474731995E0,3.580882847E-1,-8.290743828E-1,1.317475319E0,1.597289194E0
4.479749078E0,-4.520828724E-1,-6.596422195E-1,2.421600342E0,2.550226460E0
4.484766161E0,-2.618221641E-1,-6.607187390E-1,4.036782265E0,4.098867057E0
4.489783245E0,-2.431033850E-1,-3.115107417E-1,4.570198059E-1,6.041566858E-1
4.494800328E0,1.097182512E0,1.606340051E0,-8.096714020E0,8.327119294E0
4.499817411E0,9.327508211E-1,1.278188944E0,-7.658546448E0,7.820302089E0
4.504834495E0,-1.123345733E0,5.826488733E-1,1.868467331E-1,1.279178270E0
4.509851578E0,-1.319996953E0,-3.699619174E-1,3.312931061E-1,1.410325813E0
4.514868661E0,-1.037439823E0,-4.472770691E-1,-3.757903099E0,3.924050696E0
4.519885745E0,-1.636342049E0,-2.142750174E-1,-3.959422112E0,4.289586523E0
4.524902828E0,-1.046799302E0,4.721687734E-1,-3.712223053E0,3.885785908E0
4.529919911E0,-2.983237505E-1,7.703764439E-1,-4.102244377E0,4.184601039E0
4.534936995E0,5.566911101E-1,5.089097023E-1,-2.881259918E-1,8.074098491E-1
4.539954078E0,1.582347602E-1,2.478008866E-1,2.249667168E0,2.268798335E0
4.544971161E0,3.486561775E-1,-2.381291389E-1,4.273372650E0,4.294179831E0
4.549988245E0,1.286310434E0,-3.347322941E-1,3.550107002E0,3.790765090E0
4.555005328E0,1.501114845E0,-2.235138416E-1,1.689914703E0,2.271368733E0
4.560022411E0,5.696575642E-1,-5.168362856E-1,2.400520325E0,2.520739438E0
4.565039495E0,1.944002509E-2,-8.190717697E-1,8.437700272E-1,1.176097078E0
4.570056578E0,-7.049382329E-1,-8.647463322E-1,-4.684888840E0,4.815901533E0
4.575073713E0,-1.425394773E0,-3.011671901E-1,8.887815475E-1,1.706570999E0
4.580090849E0,2.013457119E-1,1.620332479E0,2.200835037E1,2.206883557E1
4.585107984E0,1.601436257E0,2.028454065E0,-2.523168087E0,3.611869485E0
4.590125120E0,2.677374482E-1,1.563182473E-2,-9.252957344E0,9.256843269E0
4.595142255E0,1.016859114E-1,-3.925664723E-1,-9.580085754E0,9.588664741E0
4.600159391E0,1.280073971E-1,-4.167356193E-1,-9.557421684E0,9.567359287E0
4.605176526E0,-1.556621313E0,-1.961090416E-1,-2.494956493E0,2.947259163E0
4.610193661E0,-4.136339664E0,-1.345817447E0,1.982705307E1,2.029858527E1
4.615210797E0,-3.629791737E-1,-7.624402046E-1,-3.332386494E0,3.437712712E0
4.620227932E0,1.269178241E-1,-1.503797323E-1,-9.556370735E0,9.558396509E0
4.625245068E0,4.507281780E-1,1.238898039E0,-1.112378407E1,1.120163364E1
4.630262203E0,1.637330174E0,2.551505804E0,-1.967962265E0,3.614402778E0
4.635279338E0,3.168479681E0,1.224563837E0,9.663547516E0,1.024319143E1
4.640296474E0,-3.008905649E-1,-4.731984138E-1,-1.535760880E0,1.634935274E0
4.645313609E0,-1.562791944E0,-9.397510290E-1,-2.629822254E0,3.200221202E0
4.650330745E0,-1.566383839E0,-1.040574551E0,6.751143456E0,7.008158937E0
4.655347880E0,-3.157168627E-1,-5.664194226E-1,1.859251976E0,1.969092687E0
4.660365016E0,-2.591817975E-1,-3.460318744E-1,-1.959872246E0,2.006990902E0
4.665382151E0,2.877497673E-1,-3.502473831E-1,5.531717300E0,5.550258503E0
4.670399286E0,1.210820436E0,-2.772333026E-1,5.811905861E0,5.943163650E0
4.675416422E0,1.245095730E0,-1.561745107E-1,2.897222519E0,3.157301408E0
4.680433557E0,1.325746179E0,-6.084250212E-1,2.927563667E0,3.270842852E0
4.685450693E0,-1.007271707E-1,-7.383817434E-1,6.913890839E-1,1.016549274E0
4.690467828E0,-4.800554514E-1,-6.283642054E-1,2.141036987E0,2.282396590E0
4.695484963E0,-5.005640984E-1,-4.042823315E-1,2.690453529E0,2.766324062E0
4.700502099E0,5.705689788E-1,1.301764250E0,-4.211590290E0,4.444955781E0
4.705519234E0,1.352610588E0,1.426970482E0,-7.676269531E0,7.924071812E0
4.710536370E0,-6.473184228E-1,4.707975686E-1,-2.561938763E0,2.684064402E0
4.715553505E0,-1.944901466E0,-3.282291889E-1,7.567138672E-1,2.112579464E0
4.720570641E0,-1.181630969E0,-1.511645466E-1,-1.926957130E0,2.265450562E0
4.725587776E0,-1.060971975E0,-5.516469479E-2,-4.388180256E0,4.514956327E0
4.730604911E0,-1.178107619E0,1.212636828E-1,-4.776375771E0,4.921016962E0
4.735622047E0,-2.596821785E-1,4.920629561E-1,-2.768706322E0,2.824056565E0
4.740639182E0,7.472898960E-1,4.288169742E-1,1.441137314E0,1.679048225E0
4.745656318E0,2.622588277E-1,1.584375501E-1,1.954190254E0,1.978065140E0
4.750673453E0,3.656558096E-1,-2.065471858E-1,2.778088570E0,2.809651582E0
4.755690588E0,1.046324968E0,-3.485073447E-1,3.276295662E0,3.456930224E0
4.760707724E0,1.122103930E0,-3.404998183E-1,2.569107056E0,2.824069478E0
4.765724859E0,4.594982266E-1,-5.418652296E-1,2.551829338E0,2.648884580E0
4.770741995E0,-1.404029131E-1,-5.072241426E-1,2.051920891E0,2.118341014E0
4.775759130E0,-3.151070476E-1,-4.728920758E-1,-5.369720459E-1,7.818301253E-1
4.780776266E0,1.270134896E-1,-7.661423087E-1,-6.551410675E0,6.597278855E0
4.785793401E0,-1.621180654E0,1.845673621E-1,8.277091980E-1,1.829588571E0
4.790810536E0,-3.436209559E-1,2.844866753E0,1.476338387E1,1.503891104E1
4.795827672E0,1.255823493E0,1.310657740E0,-4.729372025E0,5.065755235E0
4.800844807E0,1.496449411E-1,-2.294210196E-1,-9.181271553E0,9.185356550E0
4.805861943E0,3.106027842E-2,-3.738376498E-1,-9.524243355E0,9.531627920E0
4.810879078E0,-1.976680756E-2,-3.980259299E-1,-9.421916008E0,9.430340218E0
4.815896213E0,-2.728004694E0,-8.860088587E-1,1.367868710E1,1.397617623E1
4.820913349E0,-2.257594347E0,-1.677096844E0,1.645820236E1,1.669676050E1
4.825930484E0,-2.901345491E-1,-5.114533901E-1,-6.284110069E0,6.311560979E0
4.830947620E0,-2.067325413E-1,-2.941256166E-1,-9.345980644E0,9.352892730E0
4.835964755E0,8.655921221E-1,1.772516608E0,-5.455418110E0,5.801090553E0
4.840981891E0,3.011868477E0,2.274176598E0,2.206566811E0,4.371746563E0
4.845999026E0,2.311593056E0,4.673403502E-1,-7.005434036E-1,2.460209446E0
4.851016161E0,4.742290378E-1,-5.723963976E-1,2.178915977E0,2.302217551E0
4.856033297E0,-2.223094463E0,-8.259535432E-1,2.951116562E0,3.785952616E0
4.861050432E0,-1.941993117E0,-7.600054145E-1,2.631886482E0,3.357941624E0
4.866067568E0,-8.156717420E-1,-5.223206878E-1,7.446098328E-2,9.714338524E-1
4.871084703E0,-1.094352484E0,-5.348962545E-1,-2.193061829E0,2.508633402E0
4.876101838E0,-6.029937863E-1,-3.846559525E-1,2.252169609E0,2.363012835E0
4.881118974E0,5.167281032E-1,7.147794962E-2,9.805850029E0,9.819715465E0
4.886136109E0,1.426640391E0,-4.529415667E-1,4.835258484E0,5.061638418E0
4.891153245E0,1.420231104E0,-4.147371650E-1,-2.228237629E0,2.674716104E0
4.896170380E0,1.436078429E0,9.730467200E-1,-6.203361988E0,6.441338458E0
4.901187516E0,1.035105348E0,7.238057852E-1,-6.381249428E0,6.505050511E0
4.906204651E0,-6.210332513E-1,2.214342356E-2,5.708447456E0,5.742172498E0
4.911221786E0,-5.567026138E-1,-4.473054707E-1,3.316309929E0,3.392331282E0
4.916238922E0,-6.034129262E-1,-2.400124520E-1,-4.338644505E0,4.386974957E0
4.921256057E0,-1.493883133E0,4.124075770E-1,-4.576555729E0,4.831834969E0
4.926273193E0,-5.239588618E-1,9.283814430E-1,-4.002123833E0,4.141668766E0
4.931290328E0,-3.116175234E-1,2.640424967E-1,-2.774024010E0,2.803931727E0
4.936307463E0,-3.035492897E-1,-3.328216076E-1,4.704217911E-1,6.513133311E-1
4.941324599E0,-1.042240560E-1,-2.968123555E-1,3.967590332E-1,5.063377911E-1
4.946341734E0,1.776833087E-1,-4.183778167E-2,1.308740616E0,1.321409761E0
4.951358870E0,1.061597466E0,1.455053091E-1,2.946884155E0,3.135647812E0
4.956376005E0,7.200170755E-1,-3.363794088E-2,9.725599289E-1,1.210549014E0
4.961393141E0,1.527188122E-1,-4.244699478E-1,2.386964798E0,2.429217717E0
4.966410276E0,-9.123477340E-2,-2.684043646E-1,2.422604561E0,2.439134589E0
4.971427411E0,-3.018601835E-1,-1.131597012E-1,9.711236954E-1,1.023233072E0
4.976444547E0,4.399750233E-1,9.948006272E-2,-3.205995560E-1,5.534061612E-1
4.981461682E0,3.279193640E-1,2.251012623E-1,-1.538987160E0,1.589554392E0
4.986478818E0,-4.668744206E-1,-9.164601564E-2,-1.335557938E0,1.417774919E0
4.991495953E0,1.237035692E-1,-7.829431295E-1,-5.728424072E0,5.783004830E0
4.996513088E0,-1.062017977E-1,-5.173468590E-1,-8.757706642E0,8.773616827E0
5.001530224E0,-3.542163849E0,1.755006075E0,2.385508728E1,2.418040860E1
5.006547359E0,7.698034048E-1,2.048959017E0,9.357793808E0,9.610366033E0
5.011564495E0,1.631738245E-1,-6.944596767E-3,-7.781001091E0,7.782714944E0
5.016581630E0,-5.314955860E-2,-3.767226040E-1,-9.494219780E0,9.501839508E0
5.021598766E0,-1.107262373E-1,-3.863945007E-1,-9.593505859E0,9.601922499E0
5.026615901E0,-1.535903215E-1,-3.624466658E-1,-9.544272423E0,9.552386804E0
5.031633036E0,-1.673081815E-1,-3.338229060E-1,-9.542779922E0,9.550082639E0
5.036650172E0,9.348724782E-2,-9.770324826E-2,-4.629643440E0,4.631617879E0
5.041667307E0,2.305026531E0,-2.139187098E0,3.291313553E1,3.306302707E1
5.046684443E0,6.617339253E-1,-4.633880258E-1,3.010957718E0,3.117448737E0
5.051701578E0,-8.881777525E-1,1.001196027E0,1.006196022E1,1.015058110E1
5.056718713E0,1.459071994E0,-1.573523730E-1,6.554935455E0,6.717204007E0
5.061735797E0,1.451447308E-1,-4.255690277E-1,-7.645482063E0,7.658692576E0
5.066752880E0,3.409871161E-1,-1.491167992E-1,-1.103891754E1,1.104518938E1
5.071769963E0,-2.968702912E-1,2.120833874E0,-6.035521984E0,6.404185656E0
5.076787047E0,-9.033612013E-1,1.294669032E0,4.082630157E0,4.377224962E0
5.081804130E0,2.752188742E-1,-5.227055550E-1,-3.651125431E0,3.698605607E0
5.086821213E0,-7.010716200E-1,-7.570642233E-1,-7.171835423E0,7.245679470E0
5.091838297E0,-2.857278109E0,-5.846078396E-1,1.047654152E0,3.098932677E0
5.096855380E0,-2.776139975E0,-7.780085206E-1,1.238892269E1,1.271997075E1
5.101872463E0,3.982986212E-1,9.665510058E-2,3.782014847E-1,5.576919966E-1
5.106889547E0,4.831733108E-1,2.363962531E-1,-7.308136940E0,7.327905920E0
5.111906630E0,6.856300831E-1,4.036162198E-1,-7.113237858E0,7.157593694E0
5.116923713E0,1.386746049E0,6.389864683E-1,1.670527458E0,2.263190292E0
5.121940797E0,2.383758068E0,-4.103942215E-1,9.664216042E0,9.962318889E0
5.126957880E0,-5.548152924E-1,-3.786280751E-1,-6.539802551E-1,9.374803475E-1
5.131974963E0,-6.306246519E-1,-5.165141225E-1,-1.684856415E-2,8.153270291E-1
5.136992047E0,-7.912137508E-1,-5.043412447E-1,4.952604294E0,5.040701199E0
5.142009130E0,-2.338518500E-1,-2.190515548E-1,2.857268333E0,2.875178708E0
5.147026213E0,1.445628285E0,7.300745249E-1,-3.113953590E0,3.509922637E0
5.152043297E0,9.442726374E-1,6.496910453E-1,-5.481642246E0,5.600192049E0
5.157060380E0,-8.400505781E-1,-2.988242507E-1,-6.298208237E-1,1.091629597E0
5.162077463E0,-1.074985623E0,-4.013885558E-1,3.321584702E0,3.514204290E0
5.167094547E0,-1.453192830E-1,1.847523749E-1,-7.474489212E-1,7.835375063E-1
5.172111630E0,-1.483629793E-1,4.552503824E-1,-3.396066189E0,3.429654508E0
5.177128713E0,-4.656655490E-1,2.884584665E-1,-1.197030067E0,1.316409386E0
5.182145797E0,-3.455644250E-1,1.039251685E-1,1.113947868E0,1.170937687E0
5.187162880E0,8.999687433E-2,2.188810706E-2,7.343521118E-1,7.401699472E-1
5.192179963E0,1.374410391E-1,-1.427407414E-1,-5.868387222E-1,6.193905427E-1
5.197197047E0,1.747375727E-2,-1.395751387E-1,-1.245784760E-2,1.412152594E-1
5.202214130E0,1.374796182E-1,-2.235380858E-1,8.769626617E-1,9.153870391E-1
5.207231213E0,2.264142334E-1,-7.508977056E-1,-3.916088104E0,3.993852377E0
5.212248297E0,-3.708781600E-1,-4.697266817E-1,-7.019690037E0,7.045157342E0
5.217265380E0,-6.787955165E-1,9.453331232E-1,2.630380630E1,2.632953938E1
5.222282463E0,3.555032015E0,1.597842813E0,9.657760620E0,1.041459046E1
5.227299599E0,6.737347245E-1,1.930941641E-1,-7.886008263E0,7.917091016E0
5.232316734E0,8.733509481E-2,-3.728847504E-1,-9.453636169E0,9.461390346E0
5.237333870E0,5.778373778E-2,-4.206946790E-1,-9.570055962E0,9.579472537E0
5.242351005E0,9.578947723E-2,-4.252240360E-1,-9.485269547E0,9.495279326E0
5.247368141E0,-2.667858362E0,7.369577885E-2,3.750900269E0,4.603493471E0
5.252385276E0,-3.767275333E0,-1.164527893E0,1.330986214E1,1.388167565E1
5.257402411E0,-3.659857810E-1,-4.577871561E-1,-6.589207649E0,6.615222756E0
5.262419547E0,6.436535716E-2,-1.090093255E-1,-9.504250526E0,9.505093582E0
5.267436682E0,1.039489269E0,2.266018629E0,-4.711282730E0,5.330249838E0
5.272453818E0,2.592043877E0,2.179843426E0,6.540975571E0,7.365783749E0
5.277470953E0,1.273764372E0,3.459297121E-1,-2.875562668E0,3.164017019E0
5.282488088E0,-1.237118840E0,-6.766692400E-1,-1.060281754E0,1.764239690E0
5.287505224E0,-2.599320650E0,-1.210356236E0,7.137475014E0,7.691877510E0
5.292522359E0,-3.881139755E-1,-5.717141032E-1,1.255036354E0,1.432691776E0
5.297539495E0,-3.463293314E-1,-3.828755319E-1,-3.682615280E0,3.718627836E0
5.302556630E0,-7.295268774E-1,-5.078228712E-1,3.500098228E0,3.611202174E0
5.307573766E0,1.093856812E0,-3.705807030E-1,9.526432037E0,9.596184666E0
5.312590901E0,1.375734210E0,-1.787734330E-1,3.182855606E0,3.472056216E0
5.317608036E0,1.330693841E0,-3.389809728E-1,7.879610062E-1,1.583204581E0
5.322625172E0,8.585167527E-1,-7.971556187E-1,1.165187836E0,1.652322846E0
5.327642307E0,3.110371828E-1,-6.694140434E-1,3.254418373E0,3.337079298E0
5.332659443E0,-2.545636892E-1,-4.335957170E-1,3.954851151E0,3.986684781E0
5.337676578E0,-7.779333591E-1,-4.819134772E-1,1.991427422E0,2.191621337E0
5.342693713E0,4.966807365E-1,1.100756049E0,-5.449873447E0,5.582067379E0
5.347710849E0,1.164419889E0,1.434198260E0,-7.999267101E0,8.209815618E0
5.352727984E0,-9.083603621E-1,7.169790268E-1,-2.286517620E0,2.562682247E0
5.357745120E0,-1.496884823E0,-2.905067801E-1,4.662036896E-2,1.525526736E0
5.362762255E0,-1.090892076E0,-4.550819099E-1,-2.970959663E0,3.197459365E0
5.367779391E0,-1.645787477E0,-3.680748641E-1,-3.742603302E0,4.105018271E0
5.372796526E0,-1.357012033E0,2.696611583E-1,-3.304275990E0,3.582239330E0
5.377813661E0,-2.071904540E-1,7.425825000E-1,-3.785537720E0,3.863243777E0
5.382830797E0,9.018318653E-1,6.427356005E-1,-8.373146057E-1,1.388346324E0
5.387847932E0,2.041346431E-1,2.144565284E-1,1.911673546E0,1.934465896E0
5.392865068E0,3.432393372E-1,-3.188302517E-1,4.332777023E0,4.358029682E0
5.397882203E0,1.122619271E0,-4.197979271E-1,3.470751762E0,3.671869023E0
5.402899338E0,1.336961865E0,-2.697973251E-1,1.773249626E0,2.237112394E0
5.407916474E0,6.863254905E-1,-5.630636811E-1,2.125049591E0,2.303023915E0
5.412933609E0,-1.057424694E-1,-9.405195713E-1,-2.391756535E0,2.572208750E0
5.417950745E0,-2.562157512E-1,-6.603236794E-1,-8.265689850E0,8.295981109E0
5.422967880E0,-1.987920761E0,5.618913770E-1,2.022960854E1,2.033481282E1
5.427985016E0,2.387316465E0,1.145024300E0,2.266436768E1,2.281849957E1
5.433002151E0,9.342933893E-1,8.234262466E-1,-6.649937630E0,6.765545462E0
5.438019286E0,1.403295696E-1,-3.315634131E-1,-9.442626953E0,9.449488370E0
5.443036422E0,8.607909083E-2,-4.785392284E-1,-9.649089813E0,9.661332394E0
5.448053557E0,-7.714381814E-1,-7.972357273E-1,-9.443735123E0,9.508671555E0
5.453070693E0,-1.487200975E0,-1.068993807E0,-8.889289856E0,9.076011715E0
5.458087828E0,-1.413352728E0,4.351675808E-1,-6.657146454E0,6.819423411E0
5.463104963E0,-1.423106551E0,1.845250010E0,2.264300346E0,3.249190040E0
5.468122099E0,-1.176863551E0,1.938320100E-1,-4.011619568E0,4.185172664E0
5.473139234E0,-3.349904060E0,-2.844807506E-1,6.654402733E0,7.455458553E0
5.478156370E0,-6.933504939E-1,-1.139624268E-1,1.059757423E1,1.062084281E1
5.483173505E0,-5.925667286E-2,2.409520745E-2,-3.578271389E0,3.578843118E0
5.488190641E0,4.294883311E-1,6.122750044E-2,-6.271563530E0,6.286550576E0
5.493207776E0,1.574365616E0,6.479834318E-1,7.328205109E-1,1.853519766E0
5.498224911E0,3.228724480E0,5.319365263E-1,7.249754906E0,7.954028189E0
5.503242047E0,1.532131314E0,-3.806853592E-1,-2.611933231E0,3.051973609E0
5.508259182E0,7.737008929E-1,-3.758319616E-1,-3.451227665E0,3.556801250E0
5.513276318E0,7.054981589E-1,-3.529044986E-1,7.575818062E0,7.616776782E0
5.518293453E0,1.076495171E0,-6.173395514E-1,1.011050797E1,1.018637920E1
5.523310588E0,-8.020667434E-1,-5.138911307E-2,3.111583710E0,3.213705818E0
5.528327724E0,-4.936923087E-1,-9.180392027E-1,-2.495979786E0,2.704892450E0
5.533344859E0,-1.528137565E0,-9.838588238E-1,-1.659291267E0,2.460981534E0
5.538361995E0,-1.386612177E0,-7.933802605E-1,2.552742004E0,3.011417824E0
5.543379130E0,1.614042521E0,7.966575623E-1,-1.074142456E0,2.096086483E0
5.548396266E0,1.413032770E0,1.087189555E0,-9.881419182E0,1.004097046E1
5.553413401E0,-5.763880908E-2,8.237369061E-1,-6.047959805E0,6.104070979E0
5.558430536E0,-1.378830791E0,6.906105280E-1,4.490163803E0,4.747598154E0
5.563447672E0,-1.212934017E0,-5.851339102E-1,3.202346802E0,3.473991316E0
5.568464807E0,-2.232517451E-1,2.160948217E-1,-2.928518295E0,2.944954621E0
5.573481943E0,4.572851658E-1,4.015699625E-1,-3.399001598E0,3.453053724E0
5.578499078E0,2.667956352E-1,-2.590251565E-1,-1.194677353E-1,3.905719939E-1
5.583516213E0,-2.152805328E-1,-4.745299816E-1,3.347468376E0,3.387782304E0
5.588533349E0,8.194275945E-2,-2.153966576E-1,2.922256470E0,2.931329598E0
5.593550484E0,2.288019359E-1,1.257099509E-1,2.213649750E-1,3.422802504E-1
5.598567620E0,4.031574130E-1,1.083836257E-1,-2.043762207E-1,4.648145325E-1
5.603584755E0,6.556353718E-2,1.391138732E-1,1.144810677E0,1.155094253E0
5.608601891E0,4.034527391E-2,-4.793979824E-1,-1.132596970E0,1.230538932E0
5.613619026E0,2.506061196E-1,-6.698754430E-1,-8.222969055E0,8.254014576E0
5.618636161E0,-1.508146882E0,-1.514259130E-1,1.213936806E0,1.941926722E0
5.623653297E0,5.773553848E-1,1.640697360E0,2.809024811E1,2.814404494E1
5.628670432E0,1.427543044E0,1.094288111E0,-3.838846207E0,4.239349692E0
5.633687568E0,1.189936548E-1,-2.552644610E-1,-9.166847229E0,9.171172638E0
5.638704703E0,-2.418428659E-2,-3.907958865E-1,-9.600578308E0,9.608559213E0
5.643721838E0,-2.783501148E-2,-3.917976022E-1,-9.517228127E0,9.525329987E0
5.648738974E0,-1.674005389E-2,-3.831974864E-1,-9.515231133E0,9.522958786E0
5.653756109E0,-1.766479611E0,2.261596918E-2,5.766503334E0,6.031046543E0
5.658773245E0,-1.934543133E0,-1.953703642E0,2.346352577E1,2.362406520E1
5.663790380E0,-2.068551928E-1,-6.692756414E-1,-5.001793861E0,5.050609942E0
5.668807516E0,5.362447500E-1,9.966030121E-1,-8.519734383E0,8.594570958E0
5.673824651E0,1.359898806E0,2.134414196E0,-3.880675316E0,4.633000068E0
5.678841786E0,1.320773363E0,1.437196255E0,-1.610288620E-1,1.958546820E0
5.683858922E0,3.126095533E-1,6.012686491E-1,1.542797089E-1,6.950186687E-1
5.688876057E0,-2.092476130E0,-8.571629524E-1,1.550209045E0,2.741593107E0
5.693893193E0,-2.059831142E0,-1.033413172E0,4.618059158E0,5.161135293E0
5.698910328E0,1.735170484E-1,-5.512019396E-1,2.522945404E-2,5.784187667E-1
5.703927463E0,-5.753394961E-1,-6.466862559E-1,-3.213028431E0,3.327577249E0
5.708944547E0,-3.422848880E-1,-2.663897872E-1,6.437068939E0,6.451664823E0
5.713961630E0,2.033208609E0,-2.939928174E-1,9.452052116E0,9.672727549E0
5.718978713E0,1.333442211E0,-6.422196329E-2,1.354122162E0,1.901536069E0
5.723995797E0,8.935908079E-1,-2.484142780E-1,-1.415366173E0,1.692180720E0
5.729012880E0,7.492669821E-1,4.523760974E-1,-3.990075111E0,4.084941192E0
5.734029963E0,-3.009945154E-3,4.597250819E-1,-5.832242966E-1,7.426350320E-1
5.739047047E0,-8.614546657E-1,-1.739926189E-1,2.088010788E0,2.265428574E0
5.744064130E0,-3.792227209E-1,-1.648725420E-1,-2.006799698E0,2.048960189E0
5.749081213E0,-1.210463285E0,1.575098038E-1,-4.724560738E0,4.879703359E0
5.754098297E0,-1.601991653E0,4.265212715E-1,-4.484210491E0,4.780841075E0
5.759115380E0,-1.161147594E0,6.015450954E-1,-3.202628613E0,3.459328008E0
5.764132463E0,-1.914345771E-1,3.734561503E-1,-1.966491699E0,2.010772562E0
5.769149547E0,3.134226799E-1,1.146402657E-1,-3.303470612E-1,4.695799693E-1
5.774166630E0,1.224052012E-1,-3.075758219E-1,-2.214756012E-1,3.982930597E-1
5.779183713E0,3.108034730E-1,-2.336521000E-1,3.254591942E0,3.277737148E0
5.784200797E0,1.074910760E0,-2.177586854E-1,3.957806587E0,4.106955681E0
5.789217880E0,7.157053947E-1,-2.181333452E-1,1.728888512E0,1.883844966E0
5.794234963E0,3.975186348E-1,-3.216753006E-1,2.238624573E0,2.296287448E0
5.799252047E0,-2.442584932E-1,-2.124674469E-1,2.155040741E0,2.179221242E0
5.804269130E0,-3.581191897E-1,5.920019746E-2,1.694046021E0,1.732497024E0
5.809286213E0,4.790688157E-1,2.354424894E-1,-5.309295654E-1,7.528786751E-1
5.814303297E0,3.209696710E-1,2.012066841E-1,-2.657505512E0,2.684369797E0
5.819320380E0,-8.053060174E-1,-2.032780647E-2,-1.424340248E0,1.636360640E0
5.824337463E0,-8.738851547E-1,1.289268434E-1,-7.382717133E-1,1.151235214E0
5.829354547E0,-3.458411396E-1,3.147899508E-1,-2.272576809E0,2.320194854E0
5.834371630E0,-4.216778278E-1,2.323404849E-1,-2.107591629E0,2.161882690E0
5.839388713E0,-3.507122397E-1,4.687160254E-3,-8.335018158E-1,9.042932718E-1
5.844405797E0,1.739964187E-1,-5.923762918E-1,-3.444319248E0,3.499216985E0
5.849422880E0,-2.690667510E-1,-7.066510916E-1,-7.333471298E0,7.372350640E0
5.854439963E0,-9.589905143E-1,5.269840360E-1,2.314903259E1,2.317488047E1
5.859457047E0,3.577082634E0,1.228701115E0,1.472276974E1,1.520082811E1
5.864474130E0,6.840113997E-1,2.465997934E-1,-6.959518433E0,6.997398078E0
5.869491213E0,4.934869707E-2,-3.468362391E-1,-9.461046219E0,9.467530102E0
5.874508349E0,1.463451982E-2,-3.982346058E-1,-9.635017395E0,9.643254906E0
5.879525484E0,5.180308223E-2,-3.967546821E-1,-9.555122375E0,9.563496298E0
5.884542620E0,-2.704976797E0,-7.302999496E-3,6.115183830E0,6.686735084E0
5.889559755E0,-3.121876478E0,-1.395147920E0,1.509283829E1,1.547534549E1
5.894576891E0,-2.306344062E-1,-4.814489484E-1,-6.539026260E0,6.560781185E0
5.899594026E0,2.144274116E-2,-6.940323114E-2,-9.553881645E0,9.554157791E0
5.904611161E0,8.079885840E-1,1.843678355E0,-9.662387848E0,9.869839632E0
5.909628297E0,1.975753307E0,2.180091381E0,1.901813507E0,3.503326159E0
5.914645432E0,2.154556751E0,1.091310382E0,3.079068184E0,3.913276635E0
5.919662568E0,-4.875269532E-1,-2.153926343E-1,-3.786077499E-1,6.537739252E-1
5.924679703E0,-2.642767429E0,-1.029922605E0,3.451960564E0,4.467772598E0
5.929696838E0,-9.166421890E-1,-8.716132641E-1,3.647851944E0,3.860928177E0
5.934713974E0,-2.273446023E-1,-4.386227131E-1,-3.358808041E0,3.394947261E0
5.939731109E0,-9.004530907E-1,-5.292629600E-1,4.088125229E-1,1.121633955E0
5.944748245E0,9.640728235E-1,-3.958017230E-1,1.187658501E1,1.192222156E1
5.949765380E0,1.509083271E0,-2.318251729E-1,4.071400642E0,4.348261540E0
5.954782516E0,1.052989125E0,-2.099790275E-1,3.553752899E-1,1.131003487E0
5.959799651E0,1.012391686E0,-7.930289507E-1,1.919051170E0,2.310105893E0
5.964816786E0,3.797172010E-1,-6.612040401E-1,2.940645218E0,3.037889108E0
5.969833922E0,-1.349296570E-1,-4.876947999E-1,3.822905540E0,3.856249344E0
5.974851057E0,-5.258847475E-1,-6.952425838E-1,2.720190048E0,2.856457757E0
5.979868193E0,-4.776351154E-2,2.220416367E-1,-2.550769329E0,2.560860795E0
5.984885328E0,1.291053176E0,1.824365497E0,-8.523109436E0,8.811272452E0
5.989902463E0,2.249314934E-1,1.213942885E0,-5.014225006E0,5.163981402E0
5.994919599E0,-1.561584473E0,-7.934740186E-2,2.687625885E-1,1.586529358E0
5.999936734E0,-1.160222054E0,-4.814895988E-1,-2.016908646E0,2.376103519E0
6.004953870E0,-1.656637907E0,-5.243520737E-1,-3.573640347E0,3.973700993E0
6.009971005E0,-1.636311293E0,-1.587697864E-2,-2.948559761E0,3.372205716E0
6.014988141E0,-6.312066317E-1,7.039784789E-1,-4.233501911E0,4.337804277E0
6.020005276E0,6.503177285E-1,7.592976689E-1,-3.336488247E0,3.483044634E0
6.025022411E0,4.809206724E-1,4.000442922E-1,1.218265533E0,1.369485684E0
6.030039547E0,6.520664692E-2,-1.534024477E-1,3.725963593E0,3.729690190E0
6.035056682E0,7.504119277E-1,-4.272792339E-1,4.332658768E0,4.417874783E0
6.040073818E0,1.311289310E0,-3.405433893E-1,2.126999855E0,2.521820342E0
6.045090953E0,1.186146021E0,-3.039051592E-1,1.866027832E0,2.231896189E0
6.050108088E0,4.763354361E-1,-6.250360608E-1,2.610007286E0,2.725748257E0
6.055125224E0,-2.970069349E-1,-8.012354374E-1,-2.849375725E0,2.974749295E0
6.060142359E0,-5.308718085E-1,-6.017793417E-1,-6.823941231E0,6.870963337E0
6.065159495E0,-1.770938516E0,8.456199169E-1,2.469236946E1,2.477023225E1
6.070176630E0,2.030374527E0,1.769341111E0,1.013894176E1,1.049052567E1
6.075193766E0,5.339994431E-1,3.661094904E-1,-8.026659012E0,8.052729131E0
6.080210901E0,9.301386774E-2,-3.722468019E-1,-9.531497955E0,9.539217606E0
6.085228036E0,8.413299918E-2,-4.387301803E-1,-9.652123451E0,9.662455674E0
6.090245172E0,1.039397120E-1,-4.522620142E-1,-9.624111176E0,9.635292435E0
6.095262307E0,-5.609596968E-1,-3.257908523E-1,-7.993859768E0,8.020137745E0
6.100279443E0,-4.213612556E0,2.006639540E-1,1.383794403E1,1.446663374E1
6.105296578E0,-5.830259919E-1,-1.473249346E-1,-3.781538010E0,3.829053886E0
6.110313713E0,-5.020827055E-3,-3.974605799E-1,-9.045084000E0,9.053813820E0
6.115330849E0,-1.045091629E0,1.689298749E0,3.666078568E0,4.169661718E0
6.120347984E0,1.407967806E0,1.289411783E0,1.038395882E1,1.055800913E1
6.125365120E0,1.413205266E-1,-1.610197276E-1,-6.631846428E0,6.635306013E0
6.130382255E0,1.361032575E-2,-2.878432274E-1,-8.595057487E0,8.599886754E0
6.135399391E0,1.678616703E-1,-3.449256420E-1,9.807996750E0,9.815495478E0
6.140416526E0,2.344062567E0,-1.074849606E0,1.103892994E1,1.133613273E1
6.145433661E0,7.853472233E-2,-3.107821941E-1,-4.938599586E0,4.948991731E0
6.150450797E0,-1.270022690E-1,-8.116345108E-2,-1.651618958E0,1.658481915E0
6.155467932E0,-4.579291046E-1,-6.690760851E-1,1.072771835E1,1.075831320E1
6.160485068E0,7.101383805E-2,-1.687261760E-1,2.628028870E0,2.634396938E0
6.165502203E0,-3.219158947E-2,-2.850539088E-1,-1.670465469E-1,3.319586996E-1
6.170519338E0,6.390346289E-1,-2.334362715E-1,-4.953994751E-1,8.415927695E-1
6.175536474E0,9.905341268E-1,8.803784847E-1,-5.031973839E0,5.203555020E0
6.180553609E0,1.567248553E-1,5.733142495E-1,-2.446671009E0,2.517826629E0
6.185570745E0,-1.376718760E0,-2.111459076E-1,1.110816956E0,1.781530647E0
6.190587880E0,-8.820514679E-1,-7.020983100E-2,-2.051209450E0,2.233921310E0
6.195605016E0,-1.345435739E0,9.648290277E-2,-3.952105522E0,4.175960289E0
6.200622151E0,-6.767528653E-1,7.184264064E-1,-2.852722168E0,3.018634577E0
6.205639286E0,3.668803573E-1,4.878959060E-1,-6.312751770E-1,8.781525840E-1
6.210656422E0,1.409896463E-1,-9.991534054E-2,3.152399063E-1,3.594959724E-1
6.215673557E0,-8.165119588E-2,-3.740965128E-1,-3.939323425E-1,5.493612738E-1
6.220690693E0,-7.433120161E-2,-3.066660762E-1,1.581014633E0,1.612196167E0
6.225707828E0,6.489894390E-1,-1.670027971E-1,3.644701004E0,3.705795817E0
6.230724963E0,5.888729095E-1,4.018026590E-2,1.277571678E0,1.407329084E0
6.235742099E0,1.353515685E-1,-1.151557118E-1,9.126787186E-1,9.298189761E-1
6.240759234E0,-2.196940184E-1,-1.648726761E-1,1.619738579E0,1.642863818E0
6.245776370E0,1.179486513E-2,-2.233643085E-1,2.935953140E-1,3.690920503E-1
6.250793505E0,5.002858639E-1,-6.765246391E-1,-6.903568268E0,6.954655014E0
6.255810641E0,-2.277126908E-1,-4.589378238E-1,-8.510639191E0,8.526045767E0
6.260827776E0,-2.317109585E0,1.472343445E0,2.950654030E1,2.963397902E1
6.265844911E0,1.465207338E0,1.752371311E0,5.442837715E0,5.902721419E0
6.270862047E0,1.730228513E-1,-1.001441479E-1,-8.352218628E0,8.354610809E0
6.275879182E0,-3.478263319E-2,-3.824503422E-1,-9.557141304E0,9.564853789E0
6.280896318E0,-6.964156032E-2,-3.958323598E-1,-9.617536545E0,9.625930729E0
6.285913453E0,-6.624770164E-2,-3.708057404E-1,-9.596519470E0,9.603909183E0
6.290930588E0,-7.258127630E-2,-3.554010987E-1,-9.599400520E0,9.606251523E0
6.295947724E0,-1.081384063E0,-4.345012307E-1,-7.118082047E-1,1.365596474E0
6.300964859E0,-2.446569681E0,-2.160236359E0,2.870536613E1,2.889031618E1
6.305981995E0,-4.457846582E-1,-2.091318518E-1,1.826076508E0,1.891299951E0
6.310999130E0,7.937421799E-1,1.884986758E0,4.244423866E0,4.711510977E0
6.316016266E0,1.145577669E0,1.159704804E0,-4.034295082E0,4.351183774E0
6.321033401E0,1.330044717E-1,-1.617379785E-1,-9.170084000E0,9.172474580E0
6.326050536E0,1.039946526E-1,-6.775836647E-2,-6.231017590E0,6.232253708E0
6.331067620E0,-9.496533871E-1,-1.632365584E-2,1.283528042E1,1.287037418E1
6.336084703E0,-1.477512956E0,-1.075381637E0,5.052414894E0,5.372744779E0
6.341101786E0,6.230413914E-3,-4.444332719E-1,-7.895368576E0,7.907869796E0
6.346118870E0,6.928517818E-1,5.977568626E-1,-6.637302399E0,6.700085073E0
6.351135953E0,1.586820722E0,1.840265751E0,1.017688751E0,2.634438921E0
6.356153036E0,1.066655278E0,9.960398674E-1,4.817959785E0,5.034141972E0
6.361170120E0,-1.937668771E-1,-3.526209295E-1,1.138734818E0,1.207726835E0
6.366187203E0,-7.254120111E-1,-9.992691278E-1,-3.162270546E0,3.394807267E0
6.371204286E0,-8.503572941E-1,-8.142111301E-1,2.323551178E-1,1.200015080E0
6.376221370E0,2.388800085E-1,-7.114090025E-2,4.378562927E0,4.385651376E0
6.381238453E0,9.943469167E-1,5.245558023E-1,-3.606605530E-2,1.124804579E0
6.386255536E0,7.363106608E-1,1.669618487E-2,-2.556151867E0,2.660139943E0
6.391272620E0,-5.648106337E-1,-1.738996059E-1,1.063194275E-1,6.004631092E-1
6.396289703E0,-1.063586950E0,-2.792697549E-1,2.320813179E0,2.568147700E0
6.401306786E0,2.356770635E-2,3.627879322E-1,1.247034073E0,1.298947458E0
6.406323870E0,7.087648511E-1,4.885350466E-1,-2.484601498E0,2.629497805E0
6.411340953E0,-1.604213417E-1,-1.592174023E-1,-3.256240368E0,3.264075140E0
6.416358036E0,-9.253522158E-1,-5.820258856E-1,8.108520508E-2,1.096177753E0
6.421375120E0,-3.740671873E-1,-1.320949197E-2,1.912516594E0,1.948799752E0
6.426392203E0,4.515941739E-1,3.976056874E-1,-2.134485245E-1,6.384260749E-1
6.431409286E0,1.285096854E-1,2.716034651E-1,-1.542929649E0,1.571914465E0
6.436426370E0,-3.866314590E-1,-3.452757001E-2,-6.823921204E-2,3.941226056E-1
6.441443453E0,-3.756473064E-1,2.994605899E-2,1.911632538E0,1.948421573E0
6.446460536E0,4.038925469E-1,-3.831649721E-1,-1.323686600E0,1.435998189E0
6.451477620E0,2.731500864E-1,-6.012777090E-1,-8.543451309E0,8.568938448E0
6.456494703E0,-1.034097195E0,-1.477081031E-1,-2.974777222E-1,1.086125079E0
6.461511786E0,1.431089878E0,9.382751584E-1,3.555258179E1,3.559374173E1
6.466528870E0,1.768042803E0,9.505354762E-1,-1.033600807E0,2.257836060E0
6.471545953E0,1.907407641E-1,-2.739021778E-1,-8.999233246E0,9.005420782E0
6.476563036E0,2.385203540E-2,-4.138918519E-1,-9.637695312E0,9.646608022E0
6.481580120E0,3.443631530E-2,-4.289419353E-1,-9.610451698E0,9.620081023E0
6.486597203E0,6.403012574E-2,-4.295717776E-1,-9.616561890E0,9.626364545E0
6.491614286E0,-2.035878658E0,1.982001364E-1,-5.794715881E-2,2.046324285E0
6.496631370E0,-3.617185831E0,-6.677687168E-1,1.346091366E1,1.395443101E1
6.501648505E0,-3.316766024E-1,-3.842585087E-1,-6.223176479E0,6.243844125E0
6.506665641E0,2.862450480E-1,6.772768497E-1,-7.388600349E0,7.425096315E0
6.511682776E0,1.571130991E0,2.987020254E0,9.233182907E0,9.830687117E0
6.516699911E0,1.065891623E0,7.275257111E-1,-2.090154648E0,2.456453758E0
6.521717047E0,8.640520275E-3,-3.315193355E-1,-7.899331093E0,7.906289360E0
6.526734182E0,-1.436693072E0,-8.815047145E-1,3.721335411E0,4.085275362E0
6.531751318E0,-1.251235723E0,-8.967636824E-1,9.985772133E0,1.010373302E1
6.536768453E0,4.261047840E-1,-3.014094234E-1,-1.208430290E0,1.316326971E0
6.541785588E0,1.030359715E-1,-5.631520152E-1,-2.498334408E0,2.563090208E0
6.546802724E0,5.103992224E-1,-6.030510664E-1,7.064955711E0,7.108992696E0
6.551819859E0,1.703774691E0,-5.735819042E-2,5.755667686E0,6.002820060E0
6.556836995E0,1.008646369E0,5.702140927E-2,3.075730324E0,3.237396479E0
6.561854130E0,1.217055097E-1,-7.850678563E-1,1.466074944E0,1.667488984E0
6.566871266E0,-5.973775387E-1,-8.062795401E-1,2.176761627E-1,1.026805499E0
6.571888401E0,3.453258276E-1,4.834276438E-1,-1.693552017E0,1.794734144E0
6.576905536E0,1.287925601E0,1.464001179E0,-4.726340294E0,5.112762891E0
6.581922672E0,-1.940582395E-1,2.725900114E-1,-2.949313164E0,2.968233827E0
6.586939807E0,-1.791553378E0,-3.851315081E-1,-1.442876816E0,2.332355738E0
6.591956943E0,-1.774904013E0,-1.790982634E-1,-2.421127796E0,3.007361011E0
6.596974078E0,-1.582813263E0,3.059396148E-1,-2.825137138E0,3.252736805E0
6.601991213E0,-3.734348416E-1,7.398288250E-1,-4.037835121E0,4.122003486E0
6.607008349E0,6.291310787E-1,4.341260493E-1,-2.695664406E0,2.801941814E0
6.612025484E0,9.638941288E-2,-2.470146418E-1,3.427658081E-1,4.333538408E-1
6.617042620E0,-7.010100782E-2,-3.809983134E-1,2.650959969E0,2.679116015E0
6.622059755E0,7.200400233E-1,-2.197880149E-1,4.378177643E0,4.442432203E0
6.627076891E0,9.096120596E-1,-1.705210507E-1,2.096010208E0,2.291228998E0
6.632094026E0,6.795160770E-1,-2.086846530E-1,1.734739304E0,1.874729803E0
6.637111161E0,6.864397973E-2,-2.347799987E-1,2.751577377E0,2.762428589E0
6.642128297E0,-3.130869865E-1,-1.046857089E-1,1.988423347E0,2.015641329E0
6.647145432E0,-1.682952046E-2,-1.567599177E-2,3.560667038E-1,3.568087261E-1
6.652162568E0,4.145339727E-1,1.135630012E-1,-1.781093597E0,1.832219794E0
6.657179703E0,-2.477643788E-1,2.091238797E-1,-1.763582230E0,1.793137548E0
6.662196838E0,-7.712663412E-1,2.942664623E-1,-9.907455444E-1,1.289581814E0
6.667213974E0,-5.782872438E-1,2.539100945E-1,-2.137095451E0,2.228466612E0
6.672231109E0,-6.389815807E-1,1.456048489E-1,-2.407300472E0,2.494913585E0
6.677248245E0,-3.465648890E-1,-2.759297788E-1,-2.524426937E0,2.563001332E0
6.682265380E0,-3.115895987E-1,-7.034822702E-1,-5.228746891E0,5.285051507E0
6.687282516E0,-1.557448506E0,-2.096784711E-1,3.117796898E0,3.491456488E0
6.692299651E0,2.113045692E0,1.473851681E0,1.970402145E1,1.987173023E1
6.697316786E0,1.953482985E0,1.245589972E0,-1.980324745E0,3.047831401E0
6.702333922E0,1.685218662E-1,-1.732399315E-1,-9.079975128E0,9.083191070E0
6.707351057E0,-2.376127243E-2,-3.593546748E-1,-9.561362267E0,9.568142389E0
6.712368193E0,-7.038587928E-1,-4.390078783E-1,-7.239565849E0,7.286937546E0
6.717385328E0,-3.275591850E0,-1.198540092E0,2.132027054E1,2.160370191E1
6.722402463E0,-8.379563093E-1,-8.777264357E-1,6.549240112E0,6.660714715E0
6.727419599E0,-1.917912364E-1,-4.653720856E-1,-8.164594650E0,8.180095407E0
6.732436734E0,5.236133933E-2,7.311367989E-2,-1.002401924E1,1.002442263E1
6.737453870E0,8.080967665E-1,1.271784902E0,-7.745125771E0,7.890337789E0
6.742471005E0,2.501840591E0,1.956343174E0,9.260128975E0,9.789610492E0
6.747488141E0,2.226113081E0,4.192067385E-1,5.130454063E0,5.608286069E0
6.752505276E0,-4.335834682E-1,-4.057742655E-1,-5.339929104E0,5.372847496E0
6.757522411E0,-2.413423538E0,-8.235015869E-1,-1.134189606E0,2.790905606E0
6.762539547E0,-2.558108807E0,-1.141796947E0,6.935041428E0,7.479466594E0
6.767556682E0,-3.733280897E-1,-5.693126917E-1,4.457426071E-1,8.137427574E-1
6.772573818E0,-5.759212971E-1,-3.457978666E-1,-2.644558430E0,2.728543713E0
6.777590953E0,-1.111010984E-1,-2.695221901E-1,6.479118347E0,6.485673459E0
6.782608088E0,1.271284223E0,3.190508187E-1,4.028122902E0,4.236004145E0
6.787625224E0,1.235213995E0,8.721899986E-1,-5.278016567E0,5.490348613E0
6.792642359E0,1.220041156E0,4.573215246E-1,-4.625251293E0,4.805267206E0
6.797659495E0,9.577494115E-2,-3.446685970E-1,3.559269905E0,3.577201635E0
6.802676630E0,-1.307997108E0,-7.336823940E-1,1.934517860E0,2.447755225E0
6.807693766E0,-3.393425345E-1,2.497843802E-1,-2.342644215E0,2.380236860E0
6.812710901E0,5.220188498E-1,9.864728451E-1,-4.113831520E0,4.262539399E0
6.817728036E0,-4.336670041E-1,2.812723517E-1,-3.315200329E0,3.355254748E0
6.822745172E0,-1.007176638E0,-3.507112563E-1,8.968276978E-1,1.393450065E0
6.827762307E0,-2.380911559E-1,6.107252836E-2,1.645867348E0,1.664120362E0
6.832779443E0,4.437068105E-1,1.519339383E-1,-9.345254898E-1,1.045608697E0
6.837796578E0,4.104629457E-1,-2.196204662E-2,-8.860721588E-1,9.767732756E-1
6.842813713E0,6.404550374E-2,-3.007002473E-1,9.367198944E-1,9.858836776E-1
6.847830849E0,-1.445116401E-1,-2.198281735E-1,2.331793785E0,2.346586946E0
6.852847984E0,1.055020690E-1,-1.201804727E-1,1.654552460E0,1.662262878E0
6.857865120E0,2.094765306E-1,5.846247077E-2,1.557350159E-1,2.674914438E-1
6.862882255E0,1.299685389E-1,6.903216243E-2,2.275390625E-1,2.709820760E-1
6.867899391E0,-8.881512284E-2,2.100536227E-2,9.258642197E-1,9.303514952E-1
6.872916526E0,3.742322326E-3,5.270361900E-3,2.221412659E-1,2.222352890E-1
6.877933661E0,8.293032646E-3,-7.703119516E-2,-1.111994743E0,1.114690490E0
6.882950797E0,2.132021338E-1,-6.760854721E-1,-4.673131943E0,4.726595907E0
6.887967932E0,1.632218212E-1,-7.201859355E-1,-9.090734482E0,9.120677747E0
6.892985068E0,-3.028331280E0,8.026316166E-1,1.587069893E1,1.617696178E1
6.898002203E0,1.532224894E0,2.154444695E0,1.537265491E1,1.559832889E1
6.903019338E0,6.695365310E-1,5.126722455E-1,-6.923723221E0,6.974887471E0
6.908036474E0,4.871219397E-3,-3.350921869E-1,-9.455348015E0,9.461285144E0
6.913053609E0,-7.436221838E-2,-3.864325583E-1,-9.664308548E0,9.672317177E0
6.918070745E0,-8.644707501E-2,-3.657425940E-1,-9.581221581E0,9.588589454E0
6.923087880E0,-2.707435489E-1,-3.011860549E-1,-8.532149315E0,8.541755501E0
6.928105016E0,-1.585771561E0,-1.190449715E0,3.116247368E1,3.122549612E1
6.933122151E0,4.521859586E-1,-1.283554912E0,4.021670341E0,4.245682241E0
6.938139234E0,-1.563042104E-1,-4.731983244E-1,-8.369194031E0,8.384017914E0
6.943156318E0,1.304439753E-1,9.311083555E-1,-5.627096653E0,5.705102553E0
6.948173401E0,1.697353005E0,2.402302265E0,4.656851768E0,5.508024309E0
6.953190484E0,8.880714178E-1,4.328682125E-1,-5.421375751E0,5.510658833E0
6.958207568E0,4.141511023E-1,5.714538693E-1,-7.465400696E-1,1.027327959E0
6.963224651E0,-2.043290615E0,-7.325172424E-1,7.476087570E0,7.784825201E0
6.968241734E0,-1.755948663E0,-9.118622541E-1,1.790175438E0,2.668253469E0
6.973258818E0,-6.796360016E-1,-6.518900394E-1,-4.319547176E0,4.421012726E0
6.978275901E0,-1.726225376E0,-6.713928580E-1,-2.856011391E0,3.404030476E0
6.983292984E0,-9.316037893E-1,-4.201751351E-1,6.009026527E0,6.095312344E0
6.988310068E0,3.822231591E-1,2.793654203E-1,8.909724236E0,8.922293737E0
6.993327151E0,9.409098625E-1,8.974730968E-1,-3.405806065E0,3.645584216E0
6.998344234E0,4.999564886E-1,4.803891778E-1,-8.638114929E0,8.665896363E0
7.003361318E0,4.871554971E-1,-1.490816623E-1,-7.096915722E0,7.115178043E0
7.008378401E0,1.003346682E0,-3.406029642E-1,8.086757660E0,8.155879131E0
7.013395484E0,1.057124808E-1,-3.435465395E-1,5.661927223E0,5.673325236E0
7.018412568E0,-2.572954297E-1,7.262080908E-2,-3.613038540E0,3.622916258E0
7.023429651E0,3.033167720E-1,5.406153798E-1,-2.833485603E0,2.900501115E0
7.028446734E0,1.631847471E-1,3.912434578E-1,-6.777744293E-1,7.994240940E-1
7.033463818E0,-6.912453771E-1,-1.989009380E-1,1.336476326E0,1.517745277E0
7.038480901E0,-3.848282695E-1,-2.276599407E-2,9.999742508E-1,1.071708724E0
7.043497984E0,3.089643121E-1,-3.741580248E-2,-2.511737347E0,2.530945157E0
7.048515068E0,-1.014272273E-1,-1.776365489E-1,-1.858446121E0,1.869669546E0
7.053532151E0,-3.911003768E-1,-8.237385750E-2,1.524774551E0,1.576287534E0
7.058549234E0,1.227184385E-1,2.164421678E-1,1.556144714E0,1.575910340E0
7.063566318E0,3.080118597E-1,1.456669867E-1,-2.441205978E-1,4.191479965E-1
7.068583401E0,-2.105703652E-1,3.225114942E-2,-3.634538651E-1,4.212822419E-1
7.073600484E0,-3.904934227E-1,8.546826243E-2,8.852109909E-1,9.712818517E-1
7.078617568E0,7.188888639E-2,1.224881411E-2,1.018100739E0,1.020709145E0
7.083634651E0,3.290566802E-1,-1.096280664E-1,-3.651533127E-1,5.036204459E-1
7.088651734E0,3.657810688E-1,-5.813914537E-1,-3.855693817E0,3.916399702E0
7.093668818E0,8.003879339E-2,-7.712188959E-1,-8.958328247E0,8.991820159E0
7.098685901E0,-2.562566519E0,1.996558309E-1,1.254999733E1,1.281050517E1
7.103702984E0,1.730573654E0,1.675193787E0,2.169805145E1,2.183132145E1
7.108720120E0,1.070262790E0,9.087774754E-1,-5.607840061E0,5.780934967E0
7.113737255E0,8.187650889E-2,-2.669565678E-1,-9.340736389E0,9.344909088E0
7.118754391E0,-4.171669483E-3,-3.872241974E-1,-9.663845062E0,9.671600766E0
7.123771526E0,5.816608667E-3,-3.969420195E-1,-9.599103928E0,9.607309353E0
7.128788661E0,-5.347365141E-1,-3.052971363E-1,-7.740999222E0,7.765450305E0
7.133805797E0,-3.364914179E0,-9.749908447E-1,2.568298340E1,2.592081964E1
7.138822932E0,-5.868935585E-1,-9.090068936E-1,1.235975266E0,1.642672347E0
7.143840068E0,-7.577317953E-2,-2.849578857E-1,-8.717811584E0,8.722796650E0
7.148857203E0,5.532872677E-1,1.261095285E0,-9.931320190E0,1.002634574E1
7.153874338E0,1.324341297E0,2.100887775E0,-2.866522789E0,3.792698540E0
7.158891474E0,1.967261076E0,1.487689734E0,3.878613472E0,4.596409397E0
7.163908609E0,5.615366101E-1,2.832063437E-1,1.285647392E0,1.431229686E0
7.168925745E0,-2.022284031E0,-8.974772692E-1,8.292598724E-1,2.362788625E0
7.173942880E0,-1.931792259E0,-1.006285429E0,4.524541855E0,5.021544652E0
7.178960016E0,-1.195336878E-1,-6.669816971E-1,-5.941944122E-1,9.012324263E-1
7.183977151E0,-1.018177748E0,-4.751445651E-1,-2.645657063E0,2.874360725E0
7.188994286E0,-3.346781731E-1,-2.975100875E-1,6.467989922E0,6.483472477E0
7.194011422E0,1.458528757E0,-2.176991105E-1,9.023591042E0,9.143297782E0
7.199028557E0,1.093476415E0,-3.063856363E-1,1.494909286E0,1.877316330E0
7.204045693E0,1.008251190E0,-4.538125992E-1,3.746671677E-1,1.167429580E0
7.209062828E0,1.045675278E0,-6.886411309E-1,1.341226578E0,1.834816647E0
7.214079963E0,9.180651307E-1,-5.490458608E-1,1.962724686E0,2.235303812E0
7.219097099E0,5.242113471E-1,7.666406631E-1,-1.084890366E-1,9.350429476E-1
7.224114234E0,8.275924325E-1,9.728853703E-1,-2.630856991E0,2.924521103E0
7.229131370E0,-2.403369248E-1,1.540837884E-1,-2.653500080E0,2.668813655E0
7.234148505E0,-1.610958815E0,-2.556398511E-2,-2.571317196E0,3.034388561E0
7.239165641E0,-1.927639723E0,8.432102203E-2,-2.911046982E0,3.492434604E0
7.244182776E0,-1.335066080E0,3.348620534E-1,-4.294308186E0,4.509502947E0
7.249199911E0,-6.934391260E-1,8.715248108E-2,-5.590981007E0,5.634493943E0
7.254217047E0,-1.300915003E0,-1.818100959E-1,-3.936160088E0,4.149553107E0
7.259234182E0,-1.113550305E0,-2.517449856E-2,-1.107546806E0,1.570760315E0
7.264251318E0,8.381876945E-1,6.230302453E-1,1.306323051E0,1.672484742E0
7.269268453E0,8.434562683E-1,5.470277071E-1,7.336559296E-1,1.244551651E0
7.274285588E0,7.902496457E-1,7.764190435E-3,2.615804672E0,2.732579161E0
7.279302724E0,1.204414606E0,-3.167871237E-1,3.463141441E0,3.680260489E0
7.284319859E0,1.127295494E0,-2.085669935E-1,2.784157753E0,3.010951630E0
7.289336995E0,4.711104035E-1,-4.388669729E-1,2.460212708E0,2.543068186E0
7.294354130E0,-2.347951531E-1,-5.638529062E-1,2.380917549E0,2.458012864E0
7.299371266E0,-6.709734797E-1,-5.325139761E-1,2.641631126E0,2.777047272E0
7.304388401E0,-4.929158092E-1,-6.227514744E-1,1.238088608E0,1.470934667E0
7.309405536E0,4.518464208E-2,-5.289689898E-1,-5.486313343E0,5.511940125E0
7.314422672E0,-3.416619897E-1,-8.107259870E-2,-6.128586292E0,6.138637929E0
7.319439807E0,-9.846841693E-1,2.868247747E0,1.379399300E1,1.412340932E1
7.324456943E0,1.920673728E0,1.873124480E0,1.079431534E0,2.891842894E0
7.329474078E0,3.285147548E-1,-9.451679885E-2,-8.511074066E0,8.517936201E0
7.334491213E0,6.249824166E-2,-3.645578325E-1,-9.543388367E0,9.550553385E0
7.339508349E0,-2.142697573E-2,-3.803042173E-1,-9.493479729E0,9.501118238E0
7.344525484E0,-3.372411728E0,-9.352417588E-1,9.427573204E0,1.005619086E1
7.349542620E0,-3.069694281E0,-1.674848199E0,1.769302750E1,1.803528102E1
7.354559755E0,-2.251878232E-1,-5.372201800E-1,-5.639322758E0,5.669327671E0
7.359576891E0,-1.711824089E-1,-3.287882805E-1,-9.261831284E0,9.269246133E0
7.364594026E0,5.982686877E-1,1.286158204E0,-6.160521984E0,6.321721242E0
7.369611161E0,2.047683716E0,1.960576415E0,3.295980453E0,4.347453925E0
7.374628297E0,2.308975935E0,6.233229637E-1,2.310153008E0,3.325162899E0
7.379645432E0,1.982212186E0,-1.013280898E-1,4.476165771E-2,1.985305049E0
7.384662568E0,-1.207908154E0,-7.345942855E-1,-3.808717728E-1,1.464149644E0
7.389679703E0,-2.821113110E0,-8.640334606E-1,3.612969398E0,4.664630840E0
7.394696838E0,-1.193935156E0,-7.143152356E-1,2.532083511E0,2.889147681E0
7.399713974E0,-4.307445884E-1,-5.107522607E-1,-2.115321159E0,2.218330990E0
7.404731109E0,-7.406856418E-1,-4.491660297E-1,1.779003143E-1,8.843154776E-1
7.409748245E0,6.371155381E-1,-7.441639900E-2,9.996458054E0,1.001701690E1
7.414765380E0,1.335039496E0,-2.347976267E-1,5.504023552E0,5.668486186E0
7.419782516E0,9.743654132E-1,1.134395897E-1,-3.908617973E0,4.029832622E0
7.424799651E0,8.998734951E-1,6.709400415E-1,-7.489653587E0,7.573298073E0
7.429816786E0,7.476720810E-1,3.067913055E-1,-3.160696983E0,3.262382544E0
7.434833922E0,-6.873613596E-1,-1.912243217E-1,7.217772484E0,7.252949194E0
7.439851057E0,-2.767500281E-1,-4.515522718E-2,-4.036931992E-1,4.915259623E-1
7.444868193E0,-7.565287352E-1,3.124888241E-1,-5.706229210E0,5.764636744E0
7.449885328E0,-8.335620761E-1,7.003319860E-1,-5.656126022E0,5.759952448E0
7.454902463E0,-9.218695164E-1,2.823753953E-1,-1.976996422E0,2.199566803E0
7.459919599E0,-3.551821411E-1,1.190800965E-1,1.520149231E0,1.565627065E0
7.464936734E0,2.513825595E-1,-8.557179570E-2,-4.150962830E-1,4.927683508E-1
7.469953870E0,1.333395988E-1,-1.986238211E-1,-1.333811760E0,1.355095820E0
7.474971005E0,2.376352698E-1,-9.157568216E-3,2.340005875E0,2.352059071E0
7.479988141E0,7.436367869E-1,-9.808987379E-3,3.116191864E0,3.203707793E0
7.485005276E0,2.906369269E-1,-1.787611395E-1,1.529195786E0,1.566800919E0
7.490022411E0,8.728256077E-2,-3.104806244E-1,1.728297234E0,1.758131904E0
7.495039547E0,-1.897177994E-1,-1.028468460E-1,1.152640343E0,1.172667931E0
7.500056682E0,6.544199586E-2,8.284762502E-2,8.552694321E-1,8.617610952E-1
7.505073818E0,3.336427808E-1,5.381047726E-3,1.614351273E-1,3.706855287E-1
7.510090953E0,1.293774694E-1,-3.151595592E-3,-1.392337799E0,1.398339375E0
7.515108088E0,7.250115275E-2,-5.188047886E-1,-4.034594536E0,4.068460138E0
7.520125224E0,7.379090786E-2,-7.676395178E-1,-8.409646988E0,8.444932089E0
7.525142359E0,-3.016185999E0,7.430883646E-1,9.827066422E0,1.030634721E1
7.530159495E0,-2.059021443E-1,2.404307365E0,1.513252449E1,1.532371975E1
7.535176630E0,5.468547344E-1,7.054722309E-1,-6.537575722E0,6.598229875E0
7.540193713E0,-1.836091280E-3,-3.321018517E-1,-9.395388603E0,9.401256406E0
7.545210797E0,-1.040150449E-1,-3.910834789E-1,-9.657476425E0,9.665951392E0
7.550227880E0,-1.149752438E-1,-3.684664369E-1,-9.574776649E0,9.582553663E0
7.555244963E0,-3.026422262E-1,-2.100367844E-1,-5.398345470E0,5.410900257E0
7.560262047E0,1.262346029E0,-1.419740319E0,3.562204361E1,3.567266700E1
7.565279130E0,8.959416151E-1,-8.340502381E-1,3.488636017E-2,1.224568592E0
7.570296213E0,-9.310170263E-2,-3.865358829E-1,-8.735616684E0,8.744659900E0
7.575313297E0,-1.244362146E-1,-1.646457911E-1,-8.527991295E0,8.530488153E0
7.580330380E0,4.925557077E-1,1.396678329E0,1.724127960E1,1.730476939E1
7.585347463E0,1.462840199E0,1.790381670E-1,1.562833786E0,2.148116747E0
7.590364547E0,2.275700569E-1,-3.288724422E-1,-8.021391869E0,8.031355597E0
7.595381630E0,-1.535477400E0,-1.366764158E-1,2.326018333E0,2.790471748E0
7.600398713E0,-1.990841269E0,-7.963303328E-1,7.939781189E0,8.224215238E0
7.605415797E0,3.957805634E-1,-1.475223750E-1,-6.626671791E0,6.640119286E0
7.610432880E0,4.786977172E-2,7.478872538E-1,-1.115640640E1,1.118154867E1
7.615449963E0,-9.203822613E-1,1.793591499E0,-6.671535492E0,6.969466249E0
7.620467047E0,-1.668845892E0,5.763826370E-1,4.560003281E-1,1.823513053E0
7.625484130E0,-7.398532033E-1,-2.670068443E-1,2.122090340E0,2.263170967E0
7.630501213E0,-1.606956124E-1,-4.956944585E-1,-3.790254593E-1,6.443573347E-1
7.635518297E0,2.885452509E-1,-1.299696714E-1,-4.851303101E-1,5.792252541E-1
7.640535380E0,1.242523432E0,6.037518382E-2,3.522299767E0,3.735519413E0
7.645552463E0,1.437749982E0,-2.129735500E-1,2.694858551E0,3.061820595E0
7.650569547E0,7.788426876E-1,-4.214480519E-1,2.729586601E0,2.869644125E0
7.655586630E0,1.964394599E-1,-4.379298687E-1,2.515922546E0,2.561296018E0
7.660603713E0,-3.007119894E-1,-1.441955566E-1,2.733318329E0,2.753588413E0
7.665620797E0,1.011510134E0,9.763951302E-1,8.798999786E-1,1.658530727E0
7.670637880E0,1.553522110E0,1.449911237E0,-3.113859177E0,3.769853116E0
7.675654963E0,1.053968549E0,1.954306126E0,-4.616046429E0,5.122308734E0
7.680672047E0,9.127486944E-1,1.953145981E0,-3.295105457E0,3.937716264E0
7.685689130E0,7.047756314E-1,1.641067743E0,-2.291952610E0,2.905659787E0
7.690706213E0,4.549023509E-1,1.429458857E0,-2.820983887E0,3.195033468E0
7.695723297E0,-1.168959022E0,5.549519062E-1,-4.378006458E0,4.565235740E0
7.700740380E0,-4.953659534E0,-1.822545767E0,-4.182898045E0,6.734764428E0
7.705757463E0,-1.828354597E0,-2.392554760E0,-1.577532768E0,3.399383539E0
7.710774599E0,-7.909316421E-1,-2.049892426E0,1.130562782E0,2.470992518E0
7.715791734E0,-4.169130325E-1,-3.435137868E-1,9.498603821E0,9.513952530E0
7.720808870E0,1.582669735E0,1.174856663E0,6.689192772E0,6.973552295E0
7.725826005E0,5.627865195E-1,1.570976019E0,-4.877061844E-1,1.738548717E0
7.730843141E0,5.459206104E-1,-1.962971240E-1,1.259577751E0,1.386758085E0
7.735860276E0,-4.971849024E-1,-6.257363558E-1,-9.694242477E-1,1.256392529E0
7.740877411E0,-1.412890196E0,5.025522709E-1,-6.510020256E0,6.680507557E0
7.745894547E0,-1.832719088E0,1.436653852E0,-9.035348892E0,9.330614296E0
7.750911682E0,4.345194995E-2,-1.396983624E0,2.246382523E1,2.250726316E1
7.755928818E0,9.521183372E-1,-1.479846478E0,7.987073898E0,8.178619956E0
7.760945953E0,1.867451072E0,-8.989405036E-1,4.082651138E0,4.578592344E0
7.765963088E0,-1.909326613E-1,2.214736700E0,-9.190054893E0,9.455084499E0
7.770980224E0,-9.890350103E-1,2.193901777E0,-1.124030399E1,1.149503498E1
7.775997359E0,-1.486274719E0,1.391688347E0,-1.006416702E1,1.026807026E1
7.781014495E0,1.694038391E0,-3.647250414E0,1.855701828E1,1.898776261E1
7.786031630E0,1.281798482E0,-2.904126406E0,1.105385303E1,1.150063583E1
7.791048766E0,-1.659768105E0,2.287430763E-1,-8.840611458E0,8.997975578E0
7.796065901E0,-6.097658873E-1,6.614291072E-1,-1.049359131E1,1.053208248E1
7.801083036E0,1.881472945E0,-7.878940701E-1,-1.622860909E0,2.606606038E0
7.806100172E0,1.452303410E0,-2.465790033E0,1.523663902E1,1.550304726E1
7.811117307E0,-2.080719948E0,-7.595679760E-1,-6.012505531E0,6.407539448E0
7.816134443E0,-4.734829068E-1,-2.041673064E-1,-9.998682976E0,1.001196942E1
7.821151578E0,-3.297946453E-1,-1.507165432E-1,2.773332596E0,2.796936480E0
7.826168713E0,4.474622726E0,-3.469024301E-1,1.843690109E1,1.897529741E1
7.831185849E0,-9.267660379E-1,-7.901207209E-1,-8.067531586E-1,1.460834248E0
7.836202984E0,-2.034188509E0,-8.238937855E-1,-3.268348217E0,3.936854573E0
7.841220120E0,-6.078224182E-1,-4.448681474E-1,4.474476814E0,4.537433032E0
7.846237255E0,-9.593741894E-1,-3.759358823E-1,4.144977570E0,4.271131662E0
7.851254391E0,2.991391122E-1,-1.483223587E-1,5.932302475E-1,6.807391990E-1
7.856271526E0,6.481847167E-1,7.409685850E-1,-4.493514538E0,4.600092474E0
7.861288661E0,1.161918044E0,1.575185776E0,-9.803738594E0,9.997227325E0
7.866305797E0,4.493802786E-1,6.831701994E-1,-4.385012150E0,4.460604859E0
7.871322932E0,-2.509659052E0,-7.319063544E-1,2.910704613E0,3.912323710E0
7.876340068E0,-1.436312318E0,-5.579458475E-1,-1.975133896E0,2.505084939E0
7.881357203E0,-1.456666470E0,8.699062467E-2,-3.938476562E0,4.200124070E0
7.886374338E0,-4.024615288E-1,1.028043509E0,-4.264680386E0,4.405263616E0
7.891391474E0,6.118834019E-1,1.075919628E0,-4.572306156E0,4.736875334E0
7.896408609E0,5.233486891E-1,4.408345222E-1,-8.674736023E-1,1.104870751E0
7.901425745E0,-5.964227021E-2,-2.757682204E-1,1.159239769E0,1.193080950E0
7.906442880E0,-5.251523852E-2,-4.368003607E-1,2.768064499E0,2.802808141E0
7.911460016E0,1.048660398E0,-4.854246378E-1,5.097752571E0,5.227083985E0
7.916477151E0,1.510418653E0,-2.023650557E-1,2.350856781E0,2.801578792E0
7.921494286E0,8.180335760E-1,-1.184767634E-1,2.218926430E0,2.367878835E0
7.926511422E0,7.196272165E-2,-4.108800888E-1,2.666213989E0,2.698647461E0
7.931528557E0,-6.329225302E-1,-1.456124336E-1,2.089902878E0,2.188489879E0
7.936545693E0,-1.680354923E-1,1.502324939E-1,2.903022766E-1,3.675338633E-1
7.941562828E0,4.449450970E-1,3.360752463E-1,-2.836537361E0,2.890824608E0
7.946579963E0,-3.926159143E-1,2.898608148E-1,-2.669383526E0,2.713627638E0
7.951597099E0,-6.994612217E-1,-2.548118234E-1,-2.464601994E0,2.574575315E0
7.956614234E0,3.625177145E-1,-7.328771353E-1,-6.971178055E0,7.018963703E0
7.961631370E0,-1.325909734E0,-2.724661827E-1,-3.997440338E0,4.220403263E0
7.966648505E0,-2.971818686E0,2.155519485E0,2.324762154E1,2.353571494E1
7.971665641E0,7.300236225E-1,1.556162953E0,-1.211411476E0,2.102877883E0
7.976682776E0,4.014671594E-2,-1.894163340E-1,-8.997263908E0,8.999347095E0
7.981699911E0,-9.250309318E-2,-3.709099889E-1,-9.575700760E0,9.583328028E0
7.986717047E0,-1.481641233E-1,-3.604409397E-1,-9.588875771E0,9.596791590E0
7.991734182E0,-1.558883786E-1,-3.165374696E-1,-9.496597290E0,9.503149859E0
7.996751318E0,1.170267940E0,-3.567609787E-1,2.419713211E1,2.422804177E1
8.001768453E0,3.420057058E0,-1.562481284E0,1.527173519E1,1.572781084E1
8.006785588E0,2.530285418E-1,-4.358973205E-1,-7.190872669E0,7.208514387E0
8.011802724E0,-1.296519041E-1,-3.161537945E-1,-9.314366341E0,9.320632123E0
8.016819859E0,-1.974066019E0,6.049340367E-1,1.166879749E1,1.185005134E1
8.021836995E0,8.796072006E-1,-9.179171324E-1,1.459695339E1,1.465221243E1
8.026854130E0,3.290080428E-1,-1.882440895E-1,-6.925767899E0,6.936133153E0
8.031871266E0,-1.154644191E-1,6.509848833E-1,-1.134843731E1,1.136767974E1
8.036888401E0,-1.268471479E0,1.659823418E0,-8.047363281E0,8.314089815E0
8.041905536E0,-1.221178532E0,1.723549366E-1,1.069049835E0,1.632130749E0
8.046922672E0,-1.650846243E0,-1.057688475E0,-1.146905899E0,2.271429367E0
8.051939807E0,-2.621562004E0,-6.739331484E-1,-2.418581486E0,3.629918681E0
8.056956943E0,-2.278976440E0,-3.501876295E-1,4.378956795E0,4.948901656E0
8.061974078E0,1.201256394E0,5.541968346E-1,3.831932068E0,4.053869069E0
8.066991213E0,1.239307523E0,1.098464966E0,-4.815515518E0,5.092317559E0
8.072008349E0,1.264530063E0,5.063885450E-1,-5.613769054E0,5.776665875E0
8.077025484E0,2.004321098E0,-5.614326894E-2,3.397798538E0,3.945312413E0
8.082042620E0,8.288217783E-1,-6.242557168E-1,5.564436913E0,5.660353248E0
8.087059755E0,-3.055256605E-1,-1.925176531E-1,-1.883316040E-2,3.616125882E-1
8.092076891E0,7.255656123E-1,-1.377547532E-1,2.807855606E0,2.903355806E0
8.097094026E0,7.536197901E-1,2.991986275E-1,1.494467735E0,1.700263632E0
8.102111161E0,7.691492140E-2,5.233649015E-1,-6.923694611E-1,8.713220965E-1
8.107128297E0,-1.504998654E-1,2.878585756E-1,-1.600093842E-1,3.620991191E-1
8.112145432E0,-2.704026699E-1,5.024738312E-1,-7.521467209E-1,9.440986414E-1
8.117162568E0,-4.906697869E-1,6.863565445E-1,-1.161877632E0,1.435897551E0
8.122179703E0,-7.192021608E-1,6.507117748E-1,-6.052303314E-1,1.143232835E0
8.127196786E0,-7.856211662E-1,7.572244406E-1,-8.147029877E-1,1.361738018E0
8.132213870E0,-6.705325842E-1,9.050775766E-1,-1.186748505E0,1.636200287E0
8.137230953E0,-5.278520584E-1,9.348115325E-1,-7.646389008E-1,1.318018606E0
8.142248036E0,-2.894085050E-1,9.362967014E-1,1.073074341E-2,9.800632351E-1
