"Time (s)","Gyroscope x (rad/s)","Gyroscope y (rad/s)","Gyroscope z (rad/s)","Absolute (rad/s)"
3.522902900E-2,3.994738800E-4,1.065263641E-3,-1.065263641E-3,1.558573909E-3
3.772934200E-2,3.994738800E-4,1.065263641E-3,-1.065263641E-3,1.558573909E-3
4.023027900E-2,-6.657897611E-4,-0.000000000E0,-1.065263641E-3,1.256209629E-3
4.273215400E-2,-1.731053460E-3,-0.000000000E0,-1.065263641E-3,2.032568008E-3
4.523517500E-2,-1.731053460E-3,-0.000000000E0,0.000000000E0,1.731053460E-3
4.773949800E-2,-6.657897611E-4,-0.000000000E0,0.000000000E0,6.657897611E-4
5.024527900E-2,-6.657897611E-4,-1.065263641E-3,1.065263641E-3,1.647072936E-3
5.275257100E-2,-6.657897611E-4,-0.000000000E0,1.065263641E-3,1.256209629E-3
5.526132100E-2,-6.657897611E-4,-0.000000000E0,1.065263641E-3,1.256209629E-3
5.777147700E-2,-6.657897611E-4,-0.000000000E0,0.000000000E0,6.657897611E-4
6.028293600E-2,-6.657897611E-4,-0.000000000E0,0.000000000E0,6.657897611E-4
6.279554000E-2,3.994738800E-4,-0.000000000E0,0.000000000E0,3.994738800E-4
6.530908100E-2,3.994738800E-4,-1.065263641E-3,1.065263641E-3,1.558573909E-3
6.782330000E-2,3.994738800E-4,1.065263641E-3,0.000000000E0,1.137702072E-3
7.033793600E-2,-6.657897611E-4,2.130527282E-3,1.065263641E-3,2.473299240E-3
7.285272700E-2,-1.731053460E-3,2.130527282E-3,1.065263641E-3,2.944567745E-3
7.536611300E-2,-6.657897611E-4,1.065263641E-3,1.065263641E-3,1.647072936E-3
7.787470600E-2,1.464737463E-3,-0.000000000E0,0.000000000E0,1.464737463E-3
8.038324800E-2,3.994738800E-4,-2.130527282E-3,1.065263641E-3,2.415266550E-3
8.289179000E-2,1.464737463E-3,-1.065263641E-3,1.065263641E-3,2.101197060E-3
8.540033100E-2,1.464737463E-3,-0.000000000E0,1.065263641E-3,1.811143964E-3
8.790887300E-2,3.994738800E-4,1.065263641E-3,0.000000000E0,1.137702072E-3
9.041741500E-2,-6.657897611E-4,1.065263641E-3,0.000000000E0,1.256209629E-3
9.292595600E-2,-6.657897611E-4,1.065263641E-3,1.065263641E-3,1.647072936E-3
9.543449800E-2,-6.657897611E-4,-0.000000000E0,1.065263641E-3,1.256209629E-3
9.794304000E-2,-6.657897611E-4,-0.000000000E0,-1.065263641E-3,1.256209629E-3
1.004515810E-1,-1.731053460E-3,-0.000000000E0,-1.065263641E-3,2.032568008E-3
1.029601230E-1,-6.657897611E-4,-1.065263641E-3,0.000000000E0,1.256209629E-3
1.054686650E-1,3.994738800E-4,-1.065263641E-3,0.000000000E0,1.137702072E-3
1.079772060E-1,3.994738800E-4,-1.065263641E-3,0.000000000E0,1.137702072E-3
1.104857480E-1,1.464737463E-3,-2.130527282E-3,1.065263641E-3,2.796317035E-3
1.129942900E-1,3.994738800E-4,-0.000000000E0,2.130527282E-3,2.167654465E-3
1.155028310E-1,3.994738800E-4,-0.000000000E0,1.065263641E-3,1.137702072E-3
1.180113730E-1,3.994738800E-4,1.065263641E-3,1.065263641E-3,1.558573909E-3
1.205199150E-1,-6.657897611E-4,-0.000000000E0,1.065263641E-3,1.256209629E-3
1.230284560E-1,-6.657897611E-4,-0.000000000E0,-1.065263641E-3,1.256209629E-3
1.255369980E-1,-6.657897611E-4,-1.065263641E-3,-2.130527282E-3,2.473299240E-3
1.280455400E-1,-6.657897611E-4,-0.000000000E0,-1.065263641E-3,1.256209629E-3
1.305540810E-1,3.994738800E-4,-1.065263641E-3,0.000000000E0,1.137702072E-3
1.330626230E-1,3.994738800E-4,-1.065263641E-3,0.000000000E0,1.137702072E-3
1.355711650E-1,-6.657897611E-4,-0.000000000E0,0.000000000E0,6.657897611E-4
1.380797060E-1,3.994738800E-4,-0.000000000E0,0.000000000E0,3.994738800E-4
1.405882480E-1,-1.731053460E-3,-0.000000000E0,0.000000000E0,1.731053460E-3
1.430967900E-1,-1.731053460E-3,-1.065263641E-3,-1.065263641E-3,2.294802678E-3
1.456053310E-1,-6.657897611E-4,-1.065263641E-3,0.000000000E0,1.256209629E-3
1.481138730E-1,-6.657897611E-4,-0.000000000E0,0.000000000E0,6.657897611E-4
1.506224150E-1,-6.657897611E-4,-0.000000000E0,0.000000000E0,6.657897611E-4
1.531309560E-1,-6.657897611E-4,-1.065263641E-3,0.000000000E0,1.256209629E-3
1.556394980E-1,-6.657897611E-4,-0.000000000E0,-1.065263641E-3,1.256209629E-3
1.581480400E-1,3.994738800E-4,-0.000000000E0,0.000000000E0,3.994738800E-4
1.606565810E-1,-6.657897611E-4,-0.000000000E0,0.000000000E0,6.657897611E-4
1.631651230E-1,-6.657897611E-4,-0.000000000E0,2.130527282E-3,2.232134070E-3
1.656736650E-1,-6.657897611E-4,-0.000000000E0,2.130527282E-3,2.232134070E-3
1.681822060E-1,3.994738800E-4,-1.065263641E-3,1.065263641E-3,1.558573909E-3
1.706907480E-1,3.994738800E-4,-0.000000000E0,1.065263641E-3,1.137702072E-3
1.731992900E-1,-6.657897611E-4,-0.000000000E0,1.065263641E-3,1.256209629E-3
1.757078310E-1,3.994738800E-4,-0.000000000E0,1.065263641E-3,1.137702072E-3
1.782163730E-1,3.994738800E-4,-0.000000000E0,1.065263641E-3,1.137702072E-3
1.807249150E-1,-6.657897611E-4,-0.000000000E0,1.065263641E-3,1.256209629E-3
1.832334560E-1,3.994738800E-4,-1.065263641E-3,1.065263641E-3,1.558573909E-3
1.857419980E-1,1.464737463E-3,-1.065263641E-3,1.065263641E-3,2.101197060E-3
1.882505400E-1,1.464737463E-3,-1.065263641E-3,1.065263641E-3,2.101197060E-3
1.907590810E-1,1.464737463E-3,-1.065263641E-3,1.065263641E-3,2.101197060E-3
1.932676230E-1,1.464737463E-3,-1.065263641E-3,1.065263641E-3,2.101197060E-3
1.957761650E-1,1.464737463E-3,-1.065263641E-3,2.130527282E-3,2.796317035E-3
1.982847060E-1,3.994738800E-4,-0.000000000E0,1.065263641E-3,1.137702072E-3
2.007932480E-1,3.994738800E-4,-0.000000000E0,-1.065263641E-3,1.137702072E-3
2.033017900E-1,-6.657897611E-4,-0.000000000E0,1.065263641E-3,1.256209629E-3
2.058103830E-1,-6.657897611E-4,-1.065263641E-3,2.130527282E-3,2.473299240E-3
2.083189770E-1,3.994738800E-4,-0.000000000E0,1.065263641E-3,1.137702072E-3
2.108275710E-1,3.994738800E-4,-1.065263641E-3,0.000000000E0,1.137702072E-3
2.133361650E-1,3.994738800E-4,-1.065263641E-3,0.000000000E0,1.137702072E-3
2.158447580E-1,-6.657897611E-4,-0.000000000E0,-1.065263641E-3,1.256209629E-3
2.183533520E-1,-6.657897611E-4,-1.065263641E-3,0.000000000E0,1.256209629E-3
2.208619460E-1,3.994738800E-4,1.065263641E-3,1.065263641E-3,1.558573909E-3
2.233705400E-1,3.994738800E-4,-0.000000000E0,1.065263641E-3,1.137702072E-3
2.258791330E-1,3.994738800E-4,1.065263641E-3,0.000000000E0,1.137702072E-3
2.283877270E-1,3.994738800E-4,1.065263641E-3,0.000000000E0,1.137702072E-3
2.308963210E-1,3.994738800E-4,-0.000000000E0,0.000000000E0,3.994738800E-4
2.334049150E-1,1.464737463E-3,-0.000000000E0,-1.065263641E-3,1.811143964E-3
2.359135080E-1,3.994738800E-4,1.065263641E-3,0.000000000E0,1.137702072E-3
2.384221020E-1,3.994738800E-4,-0.000000000E0,1.065263641E-3,1.137702072E-3
2.409306960E-1,-6.657897611E-4,-1.065263641E-3,1.065263641E-3,1.647072936E-3
2.434392900E-1,-6.657897611E-4,-1.065263641E-3,0.000000000E0,1.256209629E-3
2.459478830E-1,3.994738800E-4,-0.000000000E0,0.000000000E0,3.994738800E-4
2.484564770E-1,3.994738800E-4,-0.000000000E0,0.000000000E0,3.994738800E-4
2.509650710E-1,3.994738800E-4,-0.000000000E0,0.000000000E0,3.994738800E-4
2.534736650E-1,2.530001104E-3,-1.065263641E-3,1.065263641E-3,2.944567682E-3
2.559822580E-1,1.464737463E-3,-1.065263641E-3,0.000000000E0,1.811143964E-3
2.584908520E-1,3.994738800E-4,-0.000000000E0,0.000000000E0,3.994738800E-4
2.609994460E-1,-6.657897611E-4,-0.000000000E0,0.000000000E0,6.657897611E-4
2.635080400E-1,3.994738800E-4,-0.000000000E0,0.000000000E0,3.994738800E-4
2.660166330E-1,3.994738800E-4,-0.000000000E0,1.065263641E-3,1.137702072E-3
2.685252270E-1,-6.657897611E-4,-0.000000000E0,1.065263641E-3,1.256209629E-3
2.710338210E-1,-6.657897611E-4,-1.065263641E-3,1.065263641E-3,1.647072936E-3
2.735424150E-1,-6.657897611E-4,-2.130527282E-3,0.000000000E0,2.232134070E-3
2.760510080E-1,-6.657897611E-4,-1.065263641E-3,0.000000000E0,1.256209629E-3
2.785596020E-1,-6.657897611E-4,-1.065263641E-3,1.065263641E-3,1.647072936E-3
2.810681960E-1,-6.657897611E-4,-0.000000000E0,0.000000000E0,6.657897611E-4
2.835767900E-1,3.994738800E-4,-1.065263641E-3,-1.065263641E-3,1.558573909E-3
2.860853830E-1,-6.657897611E-4,-0.000000000E0,0.000000000E0,6.657897611E-4
2.885939770E-1,-6.657897611E-4,1.065263641E-3,0.000000000E0,1.256209629E-3
2.911025710E-1,-1.731053460E-3,1.065263641E-3,0.000000000E0,2.032568008E-3
2.936111650E-1,3.994738800E-4,1.065263641E-3,-1.065263641E-3,1.558573909E-3
2.961197580E-1,2.530001104E-3,-0.000000000E0,0.000000000E0,2.530001104E-3
2.986283520E-1,1.464737463E-3,1.065263641E-3,0.000000000E0,1.811143964E-3
3.011369460E-1,3.994738800E-4,-0.000000000E0,1.065263641E-3,1.137702072E-3
3.036455400E-1,3.994738800E-4,-0.000000000E0,2.130527282E-3,2.167654465E-3
3.061541330E-1,-6.657897611E-4,-0.000000000E0,0.000000000E0,6.657897611E-4
3.086627270E-1,-1.731053460E-3,-0.000000000E0,0.000000000E0,1.731053460E-3
3.111713210E-1,-6.657897611E-4,-0.000000000E0,0.000000000E0,6.657897611E-4
3.136799150E-1,3.994738800E-4,-0.000000000E0,0.000000000E0,3.994738800E-4
3.161885080E-1,3.994738800E-4,-0.000000000E0,0.000000000E0,3.994738800E-4
3.186971020E-1,3.994738800E-4,-0.000000000E0,1.065263641E-3,1.137702072E-3
3.212056960E-1,3.994738800E-4,1.065263641E-3,0.000000000E0,1.137702072E-3
3.237142900E-1,3.994738800E-4,-0.000000000E0,-1.065263641E-3,1.137702072E-3
3.262228310E-1,3.994738800E-4,1.065263641E-3,-1.065263641E-3,1.558573909E-3
3.287313730E-1,-6.657897611E-4,1.065263641E-3,0.000000000E0,1.256209629E-3
3.312399150E-1,1.464737463E-3,-1.065263641E-3,-1.065263641E-3,2.101197060E-3
3.337484560E-1,3.994738800E-4,-1.065263641E-3,-1.065263641E-3,1.558573909E-3
3.362569980E-1,3.994738800E-4,-0.000000000E0,-1.065263641E-3,1.137702072E-3
3.387655400E-1,-6.657897611E-4,1.065263641E-3,-1.065263641E-3,1.647072936E-3
3.412740810E-1,-6.657897611E-4,-0.000000000E0,-1.065263641E-3,1.256209629E-3
3.437826230E-1,3.994738800E-4,-0.000000000E0,0.000000000E0,3.994738800E-4
3.462911650E-1,1.464737463E-3,1.065263641E-3,1.065263641E-3,2.101197060E-3
3.487997060E-1,3.994738800E-4,1.065263641E-3,0.000000000E0,1.137702072E-3
3.513082480E-1,-6.657897611E-4,-0.000000000E0,0.000000000E0,6.657897611E-4
3.538167900E-1,-6.657897611E-4,-1.065263641E-3,-1.065263641E-3,1.647072936E-3
3.563253310E-1,3.994738800E-4,-1.065263641E-3,-1.065263641E-3,1.558573909E-3
3.588338730E-1,3.994738800E-4,-1.065263641E-3,-1.065263641E-3,1.558573909E-3
3.613424150E-1,3.994738800E-4,-1.065263641E-3,0.000000000E0,1.137702072E-3
3.638509560E-1,3.994738800E-4,1.065263641E-3,-1.065263641E-3,1.558573909E-3
3.663594980E-1,3.994738800E-4,2.130527282E-3,0.000000000E0,2.167654465E-3
3.688680400E-1,-6.657897611E-4,1.065263641E-3,0.000000000E0,1.256209629E-3
3.713765810E-1,-6.657897611E-4,-0.000000000E0,0.000000000E0,6.657897611E-4
3.738851230E-1,-1.731053460E-3,-0.000000000E0,-1.065263641E-3,2.032568008E-3
3.763936650E-1,-6.657897611E-4,-0.000000000E0,0.000000000E0,6.657897611E-4
3.789022060E-1,-1.731053460E-3,-1.065263641E-3,-1.065263641E-3,2.294802678E-3
3.814107480E-1,-6.657897611E-4,-0.000000000E0,1.065263641E-3,1.256209629E-3
3.839192900E-1,-6.657897611E-4,1.065263641E-3,2.130527282E-3,2.473299240E-3
3.864278310E-1,-6.657897611E-4,2.130527282E-3,1.065263641E-3,2.473299240E-3
3.889363730E-1,-6.657897611E-4,-0.000000000E0,1.065263641E-3,1.256209629E-3
3.914449150E-1,3.994738800E-4,-0.000000000E0,1.065263641E-3,1.137702072E-3
3.939534560E-1,3.994738800E-4,-0.000000000E0,2.130527282E-3,2.167654465E-3
3.964619980E-1,3.994738800E-4,-0.000000000E0,1.065263641E-3,1.137702072E-3
3.989705400E-1,-6.657897611E-4,-0.000000000E0,0.000000000E0,6.657897611E-4
4.014790810E-1,-6.657897611E-4,-0.000000000E0,1.065263641E-3,1.256209629E-3
4.039876230E-1,3.994738800E-4,1.065263641E-3,-1.065263641E-3,1.558573909E-3
4.064961650E-1,3.994738800E-4,-0.000000000E0,-2.130527282E-3,2.167654465E-3
4.090047060E-1,3.994738800E-4,-1.065263641E-3,0.000000000E0,1.137702072E-3
4.115132480E-1,-6.657897611E-4,-1.065263641E-3,2.130527282E-3,2.473299240E-3
4.140217900E-1,-6.657897611E-4,-1.065263641E-3,1.065263641E-3,1.647072936E-3
4.165303310E-1,3.994738800E-4,-0.000000000E0,1.065263641E-3,1.137702072E-3
4.190388730E-1,1.464737463E-3,-0.000000000E0,1.065263641E-3,1.811143964E-3
4.215474150E-1,3.994738800E-4,-0.000000000E0,2.130527282E-3,2.167654465E-3
4.240559560E-1,1.464737463E-3,1.065263641E-3,1.065263641E-3,2.101197060E-3
4.265644980E-1,3.994738800E-4,2.130527282E-3,2.130527282E-3,3.039386843E-3
4.290730400E-1,3.994738800E-4,1.065263641E-3,1.065263641E-3,1.558573909E-3
4.315815810E-1,3.994738800E-4,-0.000000000E0,-1.065263641E-3,1.137702072E-3
4.340901230E-1,3.994738800E-4,-0.000000000E0,-1.065263641E-3,1.137702072E-3
4.365986650E-1,3.994738800E-4,-0.000000000E0,0.000000000E0,3.994738800E-4
4.391072060E-1,3.994738800E-4,2.130527282E-3,0.000000000E0,2.167654465E-3
4.416157480E-1,3.994738800E-4,2.130527282E-3,2.130527282E-3,3.039386843E-3
4.441242900E-1,3.994738800E-4,1.065263641E-3,1.065263641E-3,1.558573909E-3
4.466328310E-1,-6.657897611E-4,1.065263641E-3,0.000000000E0,1.256209629E-3
4.491413730E-1,-6.657897611E-4,-0.000000000E0,-1.065263641E-3,1.256209629E-3
4.516499150E-1,-6.657897611E-4,-0.000000000E0,0.000000000E0,6.657897611E-4
4.541585080E-1,-6.657897611E-4,-0.000000000E0,1.065263641E-3,1.256209629E-3
4.566671020E-1,-6.657897611E-4,-0.000000000E0,2.130527282E-3,2.232134070E-3
4.591756960E-1,3.994738800E-4,-0.000000000E0,3.195791040E-3,3.220661384E-3
4.616842900E-1,-6.657897611E-4,-1.065263641E-3,1.065263641E-3,1.647072936E-3
4.641928830E-1,-6.657897611E-4,-1.065263641E-3,1.065263641E-3,1.647072936E-3
4.667014770E-1,-6.657897611E-4,-2.130527282E-3,1.065263641E-3,2.473299240E-3
4.692100710E-1,-6.657897611E-4,-1.065263641E-3,1.065263641E-3,1.647072936E-3
4.717186650E-1,-6.657897611E-4,-0.000000000E0,1.065263641E-3,1.256209629E-3
4.742272580E-1,-6.657897611E-4,-1.065263641E-3,1.065263641E-3,1.647072936E-3
4.767358520E-1,3.994738800E-4,-1.065263641E-3,1.065263641E-3,1.558573909E-3
4.792444460E-1,3.994738800E-4,-0.000000000E0,0.000000000E0,3.994738800E-4
4.817530400E-1,3.994738800E-4,-0.000000000E0,-1.065263641E-3,1.137702072E-3
4.842616330E-1,-6.657897611E-4,-0.000000000E0,1.065263641E-3,1.256209629E-3
4.867702270E-1,3.994738800E-4,1.065263641E-3,1.065263641E-3,1.558573909E-3
4.892788210E-1,-6.657897611E-4,-0.000000000E0,1.065263641E-3,1.256209629E-3
4.917874150E-1,-6.657897611E-4,-0.000000000E0,1.065263641E-3,1.256209629E-3
4.942960080E-1,-1.731053460E-3,-0.000000000E0,0.000000000E0,1.731053460E-3
4.968046020E-1,-6.657897611E-4,1.065263641E-3,-1.065263641E-3,1.647072936E-3
4.993131960E-1,3.994738800E-4,1.065263641E-3,-1.065263641E-3,1.558573909E-3
5.018217900E-1,-6.657897611E-4,-0.000000000E0,-1.065263641E-3,1.256209629E-3
5.043303830E-1,3.994738800E-4,1.065263641E-3,-2.130527282E-3,2.415266550E-3
5.068389770E-1,-6.657897611E-4,-0.000000000E0,-2.130527282E-3,2.232134070E-3
5.093475710E-1,3.994738800E-4,-1.065263641E-3,0.000000000E0,1.137702072E-3
5.118561650E-1,-6.657897611E-4,-0.000000000E0,-1.065263641E-3,1.256209629E-3
5.143647580E-1,3.994738800E-4,-0.000000000E0,-2.130527282E-3,2.167654465E-3
5.168733520E-1,3.994738800E-4,-0.000000000E0,1.065263641E-3,1.137702072E-3
5.193819460E-1,-6.657897611E-4,1.065263641E-3,0.000000000E0,1.256209629E-3
5.218905400E-1,-1.731053460E-3,-0.000000000E0,0.000000000E0,1.731053460E-3
5.243991330E-1,-1.731053460E-3,-1.065263641E-3,0.000000000E0,2.032568008E-3
5.269077270E-1,-1.731053460E-3,-1.065263641E-3,0.000000000E0,2.032568008E-3
5.294163210E-1,-6.657897611E-4,-0.000000000E0,-1.065263641E-3,1.256209629E-3
5.319249150E-1,-6.657897611E-4,1.065263641E-3,1.065263641E-3,1.647072936E-3
5.344335080E-1,-6.657897611E-4,-0.000000000E0,1.065263641E-3,1.256209629E-3
5.369421020E-1,-6.657897611E-4,-0.000000000E0,1.065263641E-3,1.256209629E-3
5.394506960E-1,-6.657897611E-4,-0.000000000E0,0.000000000E0,6.657897611E-4
5.419592900E-1,-6.657897611E-4,-0.000000000E0,1.065263641E-3,1.256209629E-3
5.444678830E-1,-6.657897611E-4,-0.000000000E0,1.065263641E-3,1.256209629E-3
5.469764770E-1,3.994738800E-4,1.065263641E-3,1.065263641E-3,1.558573909E-3
5.494850710E-1,-6.657897611E-4,1.065263641E-3,1.065263641E-3,1.647072936E-3
5.519936650E-1,1.464737463E-3,-0.000000000E0,0.000000000E0,1.464737463E-3
5.545022580E-1,-6.657897611E-4,-1.065263641E-3,1.065263641E-3,1.647072936E-3
5.570108520E-1,3.994738800E-4,-2.130527282E-3,1.065263641E-3,2.415266550E-3
5.595194460E-1,1.464737463E-3,-2.130527282E-3,2.130527282E-3,3.350186388E-3
5.620280400E-1,3.994738800E-4,-2.130527282E-3,2.130527282E-3,3.039386843E-3
5.645366330E-1,1.464737463E-3,-0.000000000E0,1.065263641E-3,1.811143964E-3
5.670452270E-1,1.464737463E-3,1.065263641E-3,1.065263641E-3,2.101197060E-3
5.695538210E-1,3.994738800E-4,1.065263641E-3,-1.065263641E-3,1.558573909E-3
5.720624150E-1,3.994738800E-4,-1.065263641E-3,-2.130527282E-3,2.415266550E-3
5.745709560E-1,3.994738800E-4,-1.065263641E-3,0.000000000E0,1.137702072E-3
5.770794980E-1,1.464737463E-3,-0.000000000E0,-1.065263641E-3,1.811143964E-3
5.795880400E-1,3.994738800E-4,-0.000000000E0,-1.065263641E-3,1.137702072E-3
5.820965810E-1,3.994738800E-4,-0.000000000E0,-1.065263641E-3,1.137702072E-3
5.846051230E-1,-6.657897611E-4,-0.000000000E0,-1.065263641E-3,1.256209629E-3
5.871136650E-1,-6.657897611E-4,-2.130527282E-3,-1.065263641E-3,2.473299240E-3
5.896222060E-1,3.994738800E-4,-2.130527282E-3,-1.065263641E-3,2.415266550E-3
5.921307480E-1,3.994738800E-4,-0.000000000E0,0.000000000E0,3.994738800E-4
5.946392900E-1,-6.657897611E-4,-0.000000000E0,0.000000000E0,6.657897611E-4
5.971478310E-1,3.994738800E-4,-0.000000000E0,0.000000000E0,3.994738800E-4
5.996563730E-1,3.994738800E-4,1.065263641E-3,-1.065263641E-3,1.558573909E-3
6.021649150E-1,3.994738800E-4,1.065263641E-3,1.065263641E-3,1.558573909E-3
6.046734560E-1,-6.657897611E-4,1.065263641E-3,0.000000000E0,1.256209629E-3
6.071819980E-1,3.994738800E-4,-0.000000000E0,-1.065263641E-3,1.137702072E-3
6.096905400E-1,3.994738800E-4,-0.000000000E0,-1.065263641E-3,1.137702072E-3
6.121990810E-1,-6.657897611E-4,1.065263641E-3,0.000000000E0,1.256209629E-3
6.147076230E-1,-6.657897611E-4,-1.065263641E-3,1.065263641E-3,1.647072936E-3
6.172161650E-1,-6.657897611E-4,-1.065263641E-3,-1.065263641E-3,1.647072936E-3
6.197247060E-1,3.994738800E-4,-1.065263641E-3,0.000000000E0,1.137702072E-3
6.222332480E-1,3.994738800E-4,-0.000000000E0,0.000000000E0,3.994738800E-4
6.247417900E-1,1.464737463E-3,-0.000000000E0,0.000000000E0,1.464737463E-3
6.272503310E-1,3.994738800E-4,-0.000000000E0,-1.065263641E-3,1.137702072E-3
6.297588730E-1,-6.657897611E-4,-1.065263641E-3,-1.065263641E-3,1.647072936E-3
6.322674150E-1,-6.657897611E-4,-1.065263641E-3,-1.065263641E-3,1.647072936E-3
6.347759560E-1,-6.657897611E-4,-1.065263641E-3,-2.130527282E-3,2.473299240E-3
6.372844980E-1,-6.657897611E-4,-0.000000000E0,-2.130527282E-3,2.232134070E-3
6.397930400E-1,-6.657897611E-4,-1.065263641E-3,-1.065263641E-3,1.647072936E-3
6.423015810E-1,3.994738800E-4,-1.065263641E-3,-1.065263641E-3,1.558573909E-3
6.448101230E-1,-6.657897611E-4,-1.065263641E-3,-1.065263641E-3,1.647072936E-3
6.473186650E-1,-6.657897611E-4,-0.000000000E0,-1.065263641E-3,1.256209629E-3
6.498272060E-1,-6.657897611E-4,-0.000000000E0,-1.065263641E-3,1.256209629E-3
6.523357480E-1,-6.657897611E-4,-0.000000000E0,0.000000000E0,6.657897611E-4
6.548442900E-1,-1.731053460E-3,-0.000000000E0,1.065263641E-3,2.032568008E-3
6.573528310E-1,-6.657897611E-4,-0.000000000E0,0.000000000E0,6.657897611E-4
6.598613730E-1,-6.657897611E-4,1.065263641E-3,0.000000000E0,1.256209629E-3
6.623699150E-1,3.994738800E-4,-1.065263641E-3,1.065263641E-3,1.558573909E-3
6.648784560E-1,3.994738800E-4,-0.000000000E0,1.065263641E-3,1.137702072E-3
6.673869980E-1,3.994738800E-4,1.065263641E-3,-1.065263641E-3,1.558573909E-3
6.698955400E-1,-6.657897611E-4,1.065263641E-3,-1.065263641E-3,1.647072936E-3
6.724040810E-1,-6.657897611E-4,1.065263641E-3,0.000000000E0,1.256209629E-3
6.749126230E-1,-6.657897611E-4,-0.000000000E0,1.065263641E-3,1.256209629E-3
6.774211650E-1,-6.657897611E-4,-0.000000000E0,1.065263641E-3,1.256209629E-3
6.799297060E-1,-6.657897611E-4,-1.065263641E-3,1.065263641E-3,1.647072936E-3
6.824382480E-1,-6.657897611E-4,-0.000000000E0,0.000000000E0,6.657897611E-4
6.849467900E-1,-6.657897611E-4,-1.065263641E-3,1.065263641E-3,1.647072936E-3
6.874553310E-1,-1.731053460E-3,-0.000000000E0,1.065263641E-3,2.032568008E-3
6.899638730E-1,-6.657897611E-4,-0.000000000E0,1.065263641E-3,1.256209629E-3
6.924724150E-1,-6.657897611E-4,-0.000000000E0,-1.065263641E-3,1.256209629E-3
6.949809560E-1,-6.657897611E-4,-0.000000000E0,0.000000000E0,6.657897611E-4
6.974894980E-1,-6.657897611E-4,-0.000000000E0,1.065263641E-3,1.256209629E-3
6.999980920E-1,-6.657897611E-4,1.065263641E-3,0.000000000E0,1.256209629E-3
7.025066860E-1,3.994738800E-4,1.065263641E-3,1.065263641E-3,1.558573909E-3
7.050152790E-1,3.994738800E-4,-0.000000000E0,2.130527282E-3,2.167654465E-3
7.075238730E-1,3.994738800E-4,-1.065263641E-3,2.130527282E-3,2.415266550E-3
7.100324670E-1,3.994738800E-4,-2.130527282E-3,1.065263641E-3,2.415266550E-3
7.125410610E-1,3.994738800E-4,-1.065263641E-3,1.065263641E-3,1.558573909E-3
7.150496540E-1,-6.657897611E-4,-1.065263641E-3,1.065263641E-3,1.647072936E-3
7.175582480E-1,-6.657897611E-4,-0.000000000E0,0.000000000E0,6.657897611E-4
7.200668420E-1,3.994738800E-4,-1.065263641E-3,0.000000000E0,1.137702072E-3
7.225754360E-1,3.994738800E-4,-1.065263641E-3,1.065263641E-3,1.558573909E-3
7.250840290E-1,3.994738800E-4,-1.065263641E-3,1.065263641E-3,1.558573909E-3
7.275926230E-1,1.464737463E-3,-0.000000000E0,1.065263641E-3,1.811143964E-3
7.301012170E-1,3.994738800E-4,-0.000000000E0,1.065263641E-3,1.137702072E-3
7.326098110E-1,3.994738800E-4,-0.000000000E0,2.130527282E-3,2.167654465E-3
7.351184040E-1,-6.657897611E-4,-0.000000000E0,1.065263641E-3,1.256209629E-3
7.376269980E-1,-6.657897611E-4,-0.000000000E0,1.065263641E-3,1.256209629E-3
7.401355920E-1,-6.657897611E-4,-0.000000000E0,0.000000000E0,6.657897611E-4
7.426441860E-1,-6.657897611E-4,1.065263641E-3,0.000000000E0,1.256209629E-3
7.451527790E-1,3.994738800E-4,-0.000000000E0,1.065263641E-3,1.137702072E-3
7.476613730E-1,-6.657897611E-4,-0.000000000E0,1.065263641E-3,1.256209629E-3
7.501699670E-1,-6.657897611E-4,-0.000000000E0,1.065263641E-3,1.256209629E-3
7.526785610E-1,-6.657897611E-4,-0.000000000E0,1.065263641E-3,1.256209629E-3
7.551871540E-1,-6.657897611E-4,1.065263641E-3,1.065263641E-3,1.647072936E-3
7.576957480E-1,-6.657897611E-4,1.065263641E-3,-1.065263641E-3,1.647072936E-3
7.602043420E-1,-6.657897611E-4,-0.000000000E0,-2.130527282E-3,2.232134070E-3
7.627129360E-1,-6.657897611E-4,-1.065263641E-3,-1.065263641E-3,1.647072936E-3
7.652215290E-1,-6.657897611E-4,-1.065263641E-3,0.000000000E0,1.256209629E-3
7.677301230E-1,-6.657897611E-4,-0.000000000E0,-1.065263641E-3,1.256209629E-3
7.702387170E-1,3.994738800E-4,-0.000000000E0,1.065263641E-3,1.137702072E-3
7.727473110E-1,3.994738800E-4,-1.065263641E-3,0.000000000E0,1.137702072E-3
7.752559040E-1,3.994738800E-4,-1.065263641E-3,-1.065263641E-3,1.558573909E-3
7.777644980E-1,3.994738800E-4,-2.130527282E-3,-1.065263641E-3,2.415266550E-3
7.802730920E-1,-6.657897611E-4,-1.065263641E-3,0.000000000E0,1.256209629E-3
7.827816860E-1,-6.657897611E-4,-0.000000000E0,-1.065263641E-3,1.256209629E-3
7.852902790E-1,-6.657897611E-4,1.065263641E-3,1.065263641E-3,1.647072936E-3
7.877988730E-1,3.994738800E-4,1.065263641E-3,1.065263641E-3,1.558573909E-3
7.903074670E-1,-6.657897611E-4,1.065263641E-3,0.000000000E0,1.256209629E-3
7.928160610E-1,-6.657897611E-4,1.065263641E-3,-1.065263641E-3,1.647072936E-3
7.953246540E-1,3.994738800E-4,1.065263641E-3,1.065263641E-3,1.558573909E-3
7.978332480E-1,3.994738800E-4,-0.000000000E0,1.065263641E-3,1.137702072E-3
8.003418420E-1,-6.657897611E-4,-0.000000000E0,1.065263641E-3,1.256209629E-3
8.028504360E-1,3.994738800E-4,-1.065263641E-3,1.065263641E-3,1.558573909E-3
8.053590290E-1,3.994738800E-4,-1.065263641E-3,1.065263641E-3,1.558573909E-3
8.078676230E-1,3.994738800E-4,-0.000000000E0,-1.065263641E-3,1.137702072E-3
8.103762170E-1,3.994738800E-4,-0.000000000E0,0.000000000E0,3.994738800E-4
8.128848110E-1,3.994738800E-4,-0.000000000E0,1.065263641E-3,1.137702072E-3
8.153934040E-1,-6.657897611E-4,1.065263641E-3,0.000000000E0,1.256209629E-3
8.179019980E-1,3.994738800E-4,-0.000000000E0,0.000000000E0,3.994738800E-4
8.204105400E-1,-6.657897611E-4,-0.000000000E0,1.065263641E-3,1.256209629E-3
8.229190810E-1,-6.657897611E-4,1.065263641E-3,0.000000000E0,1.256209629E-3
8.254276230E-1,-6.657897611E-4,-1.065263641E-3,-1.065263641E-3,1.647072936E-3
8.279361650E-1,-6.657897611E-4,-0.000000000E0,-1.065263641E-3,1.256209629E-3
8.304447060E-1,-6.657897611E-4,1.065263641E-3,0.000000000E0,1.256209629E-3
8.329532480E-1,-6.657897611E-4,1.065263641E-3,1.065263641E-3,1.647072936E-3
8.354617900E-1,-6.657897611E-4,1.065263641E-3,2.130527282E-3,2.473299240E-3
8.379703310E-1,-1.731053460E-3,-0.000000000E0,2.130527282E-3,2.745121597E-3
8.404788730E-1,3.994738800E-4,-1.065263641E-3,0.000000000E0,1.137702072E-3
8.429874150E-1,1.464737463E-3,-2.130527282E-3,0.000000000E0,2.585459792E-3
8.454959560E-1,3.994738800E-4,-1.065263641E-3,1.065263641E-3,1.558573909E-3
8.480044980E-1,3.994738800E-4,-1.065263641E-3,1.065263641E-3,1.558573909E-3
8.505130400E-1,3.994738800E-4,-1.065263641E-3,1.065263641E-3,1.558573909E-3
8.530215810E-1,-6.657897611E-4,-0.000000000E0,0.000000000E0,6.657897611E-4
8.555301230E-1,3.994738800E-4,-0.000000000E0,-1.065263641E-3,1.137702072E-3
8.580386650E-1,-6.657897611E-4,-0.000000000E0,0.000000000E0,6.657897611E-4
8.605472060E-1,3.994738800E-4,-0.000000000E0,1.065263641E-3,1.137702072E-3
8.630557480E-1,3.994738800E-4,-1.065263641E-3,0.000000000E0,1.137702072E-3
8.655642900E-1,3.994738800E-4,-1.065263641E-3,-1.065263641E-3,1.558573909E-3
8.680728310E-1,3.994738800E-4,-1.065263641E-3,0.000000000E0,1.137702072E-3
8.705813730E-1,-6.657897611E-4,-2.130527282E-3,0.000000000E0,2.232134070E-3
8.730899150E-1,-6.657897611E-4,-1.065263641E-3,-1.065263641E-3,1.647072936E-3
8.755984560E-1,-6.657897611E-4,-1.065263641E-3,-1.065263641E-3,1.647072936E-3
8.781069980E-1,-6.657897611E-4,-1.065263641E-3,0.000000000E0,1.256209629E-3
8.806155400E-1,3.994738800E-4,-1.065263641E-3,0.000000000E0,1.137702072E-3
8.831240810E-1,3.994738800E-4,-2.130527282E-3,0.000000000E0,2.167654465E-3
8.856326230E-1,3.994738800E-4,-1.065263641E-3,1.065263641E-3,1.558573909E-3
8.881411650E-1,3.994738800E-4,-1.065263641E-3,1.065263641E-3,1.558573909E-3
8.906497060E-1,-6.657897611E-4,-0.000000000E0,1.065263641E-3,1.256209629E-3
8.931582480E-1,3.994738800E-4,1.065263641E-3,0.000000000E0,1.137702072E-3
8.956667900E-1,1.464737463E-3,-0.000000000E0,0.000000000E0,1.464737463E-3
8.981753310E-1,3.994738800E-4,-0.000000000E0,1.065263641E-3,1.137702072E-3
9.006838730E-1,-6.657897611E-4,-1.065263641E-3,1.065263641E-3,1.647072936E-3
9.031924150E-1,3.994738800E-4,-1.065263641E-3,-1.065263641E-3,1.558573909E-3
9.057009560E-1,-6.657897611E-4,-1.065263641E-3,-1.065263641E-3,1.647072936E-3
9.082094980E-1,3.994738800E-4,-1.065263641E-3,0.000000000E0,1.137702072E-3
9.107180400E-1,3.994738800E-4,1.065263641E-3,1.065263641E-3,1.558573909E-3
9.132265810E-1,-6.657897611E-4,-0.000000000E0,1.065263641E-3,1.256209629E-3
9.157351230E-1,-6.657897611E-4,-1.065263641E-3,1.065263641E-3,1.647072936E-3
9.182436650E-1,-6.657897611E-4,-1.065263641E-3,0.000000000E0,1.256209629E-3
9.207522060E-1,-6.657897611E-4,-1.065263641E-3,1.065263641E-3,1.647072936E-3
9.232607480E-1,-6.657897611E-4,-0.000000000E0,1.065263641E-3,1.256209629E-3
9.257692900E-1,3.994738800E-4,-0.000000000E0,1.065263641E-3,1.137702072E-3
9.282778310E-1,3.994738800E-4,-1.065263641E-3,1.065263641E-3,1.558573909E-3
9.307863730E-1,3.994738800E-4,-1.065263641E-3,1.065263641E-3,1.558573909E-3
9.332949150E-1,-6.657897611E-4,-0.000000000E0,1.065263641E-3,1.256209629E-3
9.358034560E-1,3.994738800E-4,-0.000000000E0,0.000000000E0,3.994738800E-4
9.383119980E-1,3.994738800E-4,-1.065263641E-3,0.000000000E0,1.137702072E-3
9.408205400E-1,1.464737463E-3,-1.065263641E-3,1.065263641E-3,2.101197060E-3
9.433290810E-1,-6.657897611E-4,-0.000000000E0,0.000000000E0,6.657897611E-4
9.458376750E-1,-6.657897611E-4,-1.065263641E-3,0.000000000E0,1.256209629E-3
9.483462690E-1,-1.731053460E-3,-1.065263641E-3,0.000000000E0,2.032568008E-3
9.508548630E-1,-6.657897611E-4,-0.000000000E0,-1.065263641E-3,1.256209629E-3
9.533634560E-1,-6.657897611E-4,-1.065263641E-3,-1.065263641E-3,1.647072936E-3
9.558720500E-1,-6.657897611E-4,-1.065263641E-3,-1.065263641E-3,1.647072936E-3
9.583806440E-1,3.994738800E-4,-0.000000000E0,0.000000000E0,3.994738800E-4
9.608892380E-1,-6.657897611E-4,-1.065263641E-3,0.000000000E0,1.256209629E-3
9.633978310E-1,3.994738800E-4,-0.000000000E0,-1.065263641E-3,1.137702072E-3
9.659064250E-1,-6.657897611E-4,-0.000000000E0,-1.065263641E-3,1.256209629E-3
9.684150190E-1,-6.657897611E-4,1.065263641E-3,1.065263641E-3,1.647072936E-3
9.709236130E-1,3.994738800E-4,2.130527282E-3,1.065263641E-3,2.415266550E-3
9.734322060E-1,3.994738800E-4,1.065263641E-3,0.000000000E0,1.137702072E-3
9.759408000E-1,3.994738800E-4,1.065263641E-3,0.000000000E0,1.137702072E-3
9.784493940E-1,3.994738800E-4,-0.000000000E0,0.000000000E0,3.994738800E-4
9.809579880E-1,-6.657897611E-4,-0.000000000E0,-2.130527282E-3,2.232134070E-3
9.834665810E-1,1.464737463E-3,1.065263641E-3,1.065263641E-3,2.101197060E-3
9.859751750E-1,1.464737463E-3,1.065263641E-3,0.000000000E0,1.811143964E-3
9.884837690E-1,3.994738800E-4,1.065263641E-3,1.065263641E-3,1.558573909E-3
9.909923630E-1,1.464737463E-3,-0.000000000E0,1.065263641E-3,1.811143964E-3
9.935009560E-1,3.994738800E-4,-0.000000000E0,2.130527282E-3,2.167654465E-3
9.960095500E-1,3.994738800E-4,-0.000000000E0,1.065263641E-3,1.137702072E-3
9.985181440E-1,3.994738800E-4,-0.000000000E0,-1.065263641E-3,1.137702072E-3
1.001026738E0,3.994738800E-4,-1.065263641E-3,1.065263641E-3,1.558573909E-3
1.003535331E0,3.994738800E-4,-0.000000000E0,0.000000000E0,3.994738800E-4
1.006043925E0,3.994738800E-4,1.065263641E-3,0.000000000E0,1.137702072E-3
1.008552519E0,3.994738800E-4,1.065263641E-3,1.065263641E-3,1.558573909E-3
1.011061113E0,2.530001104E-3,1.065263641E-3,2.130527282E-3,3.474886863E-3
1.013569706E0,7.856319658E-3,9.587372653E-3,2.130527282E-3,1.257690818E-2
1.016078300E0,2.277000993E-2,1.491369121E-2,2.130527282E-3,2.730257652E-2
1.018586894E0,4.514054582E-2,-2.130527282E-3,-5.326318089E-3,4.550360082E-2
1.021095488E0,8.135951310E-2,-4.900212586E-2,-1.384842768E-2,9.598102761E-2
1.023604081E0,1.292963773E-1,-1.203747913E-1,-1.491369121E-2,1.772852553E-1
1.026112675E0,1.878858805E-1,-2.098569423E-1,-2.130527282E-3,2.816834739E-1
1.028621269E0,2.528669536E-1,-2.929475009E-1,1.810948178E-2,3.874117808E-1
1.031129863E0,2.763027549E-1,-2.450106442E-1,2.876211889E-2,3.704061117E-1
1.033638456E0,1.719069183E-1,-4.048001766E-2,2.130527236E-2,1.778891088E-1
1.036147050E0,-4.221107066E-2,2.865559161E-1,-1.278316416E-2,2.899301240E-1
1.038655644E0,-2.701774836E-1,5.869602561E-1,-4.261054471E-2,6.475599381E-1
1.041164238E0,-4.171838760E-1,7.190529704E-1,-7.030740380E-2,8.342797443E-1
1.043672831E0,-4.651207328E-1,7.339666486E-1,-1.171789989E-1,8.767982978E-1
1.046181425E0,-4.502070546E-1,6.775076985E-1,-1.736379713E-1,8.317771448E-1
1.048690019E0,-3.745733202E-1,4.953475893E-1,-2.098569423E-1,6.555260045E-1
1.051198613E0,-2.414153665E-1,1.587242782E-1,-2.183790505E-1,3.621659639E-1
1.053707206E0,-6.671213359E-2,-2.663159072E-1,-2.151832581E-1,3.488244627E-1
1.056215800E0,1.282311082E-1,-7.041392922E-1,-2.013348341E-1,7.434992101E-1
1.058724394E0,3.050648868E-1,-1.069524646E0,-1.832253486E-1,1.127173049E0
1.061232988E0,3.806985915E-1,-1.208009005E0,-1.491369158E-1,1.275327014E0
1.063741581E0,2.858901322E-1,-1.052480459E0,-9.480846673E-2,1.094731442E0
1.066250123E0,7.177213579E-2,-6.828339696E-1,-3.302317113E-2,6.873892633E-1
1.068758665E0,-1.583248079E-1,-2.503369451E-1,1.384842768E-2,2.965250576E-1
1.071267206E0,-3.266364634E-1,1.075916290E-1,3.302317113E-2,3.454820801E-1
1.073775748E0,-3.937480748E-1,3.004043400E-1,3.195790946E-2,4.962878418E-1
1.076284290E0,-3.308975101E-1,2.950780392E-1,2.982738242E-2,4.443578334E-1
1.078792831E0,-1.615206003E-1,1.384842694E-1,3.089264594E-2,2.149910528E-1
1.081301373E0,1.637842879E-2,-5.326318368E-2,2.769685537E-2,6.222809223E-2
1.083809915E0,1.271658540E-1,-1.683116555E-1,1.704421826E-2,2.116375987E-1
1.086318456E0,1.580584943E-1,-1.629853398E-1,2.130527282E-3,2.270489986E-1
1.088826998E0,1.303616315E-1,-6.924213469E-2,-9.587372653E-3,1.479207420E-1
1.091335540E0,7.922898233E-2,6.178529188E-2,-1.384842768E-2,1.014220532E-1
1.093844081E0,4.194475710E-2,1.874863952E-1,-7.456845604E-3,1.922657421E-1
1.096352623E0,3.981423005E-2,2.684464455E-1,5.326318089E-3,2.714351426E-1
1.098861165E0,7.390266657E-2,2.897517085E-1,1.810948178E-2,2.995757167E-1
1.101369706E0,1.218395308E-1,2.716422379E-1,1.810948178E-2,2.982655361E-1
1.103878248E0,1.559279710E-1,2.482064217E-1,5.326318089E-3,2.931694554E-1
1.106386790E0,1.623195410E-1,2.428801060E-1,-9.587372653E-3,2.922846164E-1
1.108895331E0,1.442100704E-1,2.524674833E-1,-1.810948178E-2,2.913148260E-1
1.111403873E0,1.133174226E-1,2.663159072E-1,-1.704421826E-2,2.899232762E-1
1.113912415E0,8.668582886E-2,2.673811615E-1,-5.326318089E-3,2.811325098E-1
1.116420956E0,7.390266657E-2,2.407495826E-1,4.261054564E-3,2.518732266E-1
1.118929498E0,7.283740491E-2,1.832253486E-1,6.391582079E-3,1.972756149E-1
1.121438040E0,7.603318989E-2,1.118526831E-1,5.326318089E-3,1.353530138E-1
1.123946581E0,6.964161247E-2,5.006739125E-2,2.130527282E-3,8.579765148E-2
1.126455123E0,3.874896467E-2,1.491369121E-2,-1.065263641E-3,4.153354349E-2
1.128963665E0,-1.238369010E-2,2.130527282E-3,-4.261054564E-3,1.326844049E-2
1.131472206E0,-6.990792602E-2,-8.522109129E-3,-3.195791040E-3,7.049792582E-2
1.133980748E0,-1.093226820E-1,-3.408843651E-2,-2.130527282E-3,1.145338791E-1
1.136489290E0,-1.231711060E-1,-8.628635854E-2,1.065263641E-3,1.503914619E-1
1.138997831E0,-1.082574204E-1,-1.608548164E-1,7.456845604E-3,1.940349081E-1
1.141506373E0,-7.416898012E-2,-2.450106442E-1,1.065263618E-2,2.562122793E-1
1.144014915E0,-3.795001656E-2,-3.110569715E-1,8.522109129E-3,3.134792970E-1
1.146523456E0,-1.557948068E-2,-3.344927728E-1,4.261054564E-3,3.348825046E-1
1.149031998E0,-1.877527125E-2,-3.025348783E-1,-1.065263641E-3,3.031187856E-1
1.151540540E0,-4.647212476E-2,-2.215748429E-1,-3.195791040E-3,2.264183793E-1
1.154049081E0,-8.162582666E-2,-1.203747913E-1,0.000000000E0,1.454402488E-1
1.156557623E0,-1.082574204E-1,-3.195790946E-2,1.065263641E-3,1.128809631E-1
1.159066165E0,-1.135837361E-1,2.237053588E-2,3.195791040E-3,1.158098401E-1
1.161574706E0,-9.334372729E-2,3.408843651E-2,2.130527282E-3,9.939623773E-2
1.164083248E0,-4.753739014E-2,1.171789970E-2,4.261054564E-3,4.914538860E-2
1.166591790E0,4.660528619E-3,-2.130527236E-2,3.195791040E-3,2.204196537E-2
1.169100331E0,4.833633825E-2,-4.154528305E-2,1.065263641E-3,6.374595615E-2
1.171608873E0,6.857634336E-2,-2.982738242E-2,-3.195791040E-3,7.485052231E-2
1.174117415E0,6.538055837E-2,1.384842768E-2,-6.391582079E-3,6.713604608E-2
1.176625956E0,5.259739235E-2,7.243792713E-2,-6.391582079E-3,8.974737484E-2
1.179134498E0,3.768370301E-2,1.257011145E-1,-3.195791040E-3,1.312670741E-1
1.181643040E0,3.342264518E-2,1.587242782E-1,1.065263641E-3,1.622085216E-1
1.184151581E0,4.301001877E-2,1.661811322E-1,3.195791040E-3,1.716864686E-1
1.186660123E0,6.111950055E-2,1.502021700E-1,0.000000000E0,1.621612939E-1
1.189168665E0,7.709845901E-2,1.299621612E-1,-3.195791040E-3,1.511441325E-1
1.191677258E0,8.135951310E-2,1.150484756E-1,-6.391582079E-3,1.410545087E-1
1.194185852E0,7.070687413E-2,1.129179448E-1,-7.456845604E-3,1.334373593E-1
1.196694446E0,5.046686530E-2,1.150484756E-1,-4.261054564E-3,1.257028751E-1
1.199203040E0,2.703106403E-2,1.139832065E-1,-1.065263641E-3,1.171494113E-1
1.201711633E0,9.986846708E-3,9.693899006E-2,1.065263641E-3,9.745788674E-2
1.204220227E0,1.464737463E-3,6.604634225E-2,2.130527282E-3,6.609692828E-2
1.206728821E0,-6.657897611E-4,2.024000883E-2,2.130527282E-3,2.036272035E-2
1.209237415E0,-6.657897611E-4,-2.769685537E-2,1.065263641E-3,2.772532885E-2
1.211746008E0,-5.992108025E-3,-6.711161137E-2,0.000000000E0,6.737858516E-2
1.214254602E0,-1.664474420E-2,-9.267793596E-2,0.000000000E0,9.416075256E-2
1.216763196E0,-3.262370080E-2,-1.043958366E-1,-1.065263641E-3,1.093797574E-1
1.219271790E0,-4.753739014E-2,-1.054610983E-1,1.065263641E-3,1.156848369E-1
1.221780383E0,-5.712476373E-2,-1.043958366E-1,3.195791040E-3,1.190459676E-1
1.224288977E0,-5.819002539E-2,-1.054610983E-1,3.195791040E-3,1.204920553E-1
1.226797571E0,-5.179844424E-2,-1.097221524E-1,3.195791040E-3,1.213764500E-1
1.229306165E0,-4.114580899E-2,-1.097221524E-1,1.065263641E-3,1.171881526E-1
1.231814758E0,-3.155843541E-2,-1.033305749E-1,1.065263641E-3,1.080475698E-1
1.234323352E0,-2.410159074E-2,-8.628635854E-2,0.000000000E0,8.958918654E-2
1.236831946E0,-2.090579830E-2,-5.965476483E-2,0.000000000E0,6.321189263E-2
1.239340540E0,-1.771000773E-2,-2.982738242E-2,2.130527282E-3,3.475422653E-2
1.241849133E0,-1.557948068E-2,-3.195791040E-3,0.000000000E0,1.590387684E-2
1.244357727E0,-7.057371549E-3,1.597895473E-2,0.000000000E0,1.746807052E-2
1.246866321E0,4.660528619E-3,2.769685537E-2,1.065263641E-3,2.810642472E-2
1.249374915E0,1.744369231E-2,3.515370190E-2,0.000000000E0,3.924366393E-2
1.251883508E0,2.916159295E-2,4.367581010E-2,-2.130527282E-3,5.255962364E-2
1.254392102E0,3.448791057E-2,5.326318368E-2,-2.130527282E-3,6.348954133E-2
1.256900696E0,3.448791057E-2,6.498108059E-2,-1.065263641E-3,7.357371539E-2
1.259409290E0,3.022685647E-2,7.669898123E-2,-1.065263641E-3,8.244714282E-2
1.261917883E0,2.703106403E-2,8.202529699E-2,-2.130527282E-3,8.639078027E-2
1.264426477E0,2.596580051E-2,7.989477366E-2,-1.065263641E-3,8.401507270E-2
1.266935071E0,2.596580051E-2,7.137266546E-2,-2.130527282E-3,7.597907158E-2
1.269443665E0,2.596580051E-2,5.858949944E-2,-2.130527282E-3,6.412091225E-2
1.271952258E0,2.596580051E-2,4.261054471E-2,0.000000000E0,4.989871057E-2
1.274460852E0,2.277000993E-2,3.089264594E-2,-2.130527282E-3,3.843654605E-2
1.276969446E0,1.637842879E-2,2.130527236E-2,-2.130527282E-3,2.695749814E-2
1.279478040E0,5.725792143E-3,1.278316416E-2,-1.065263641E-3,1.404737585E-2
1.281986633E0,-3.861580743E-3,4.261054564E-3,1.065263641E-3,5.848348353E-3
1.284495227E0,-1.238369010E-2,-6.391582079E-3,1.065263641E-3,1.397651204E-2
1.287003821E0,-1.771000773E-2,-2.130527236E-2,2.130527282E-3,2.778665418E-2
1.289512415E0,-1.984053478E-2,-3.834949061E-2,1.065263641E-3,4.319102959E-2
1.292021008E0,-1.984053478E-2,-5.326318368E-2,1.065263641E-3,5.684846825E-2
1.294529602E0,-2.090579830E-2,-6.391581893E-2,0.000000000E0,6.724793166E-2
1.297038196E0,-2.197106183E-2,-6.817687303E-2,1.065263641E-3,7.163761833E-2
1.299546790E0,-2.303632535E-2,-6.498108059E-2,1.065263641E-3,6.895177958E-2
1.302055383E0,-2.410159074E-2,-5.965476483E-2,1.065263641E-3,6.434836773E-2
1.304563977E0,-2.410159074E-2,-5.006739125E-2,1.065263641E-3,5.557665993E-2
1.307072571E0,-2.090579830E-2,-4.154528305E-2,2.130527282E-3,4.655751382E-2
1.309581165E0,-1.557948068E-2,-3.408843651E-2,1.065263641E-3,3.749501979E-2
1.312089706E0,-7.057371549E-3,-2.450106293E-2,0.000000000E0,2.549722687E-2
1.314598248E0,-1.731053460E-3,-1.278316416E-2,-1.065263641E-3,1.294374824E-2
1.317106790E0,1.464737463E-3,1.065263641E-3,-2.130527282E-3,2.796317035E-3
1.319615331E0,4.660528619E-3,1.491369121E-2,-2.130527282E-3,1.576952310E-2
1.322123873E0,4.660528619E-3,2.663159184E-2,-1.065263641E-3,2.705729103E-2
1.324632415E0,4.660528619E-3,3.728422895E-2,0.000000000E0,3.757438297E-2
1.327140956E0,6.791055668E-3,4.048001766E-2,-1.065263641E-3,4.105953061E-2
1.329649498E0,1.105211023E-2,3.941475600E-2,-1.065263641E-3,4.094883292E-2
1.332158040E0,1.637842879E-2,3.408843651E-2,1.065263641E-3,3.783396913E-2
1.334666581E0,2.170474641E-2,2.982738242E-2,-1.065263641E-3,3.690397736E-2
1.337175123E0,2.277000993E-2,2.450106293E-2,-1.065263641E-3,3.346505975E-2
1.339683665E0,1.957421936E-2,2.450106293E-2,-1.065263641E-3,3.137812829E-2
1.342192206E0,1.637842879E-2,2.556632832E-2,-1.065263641E-3,3.038132419E-2
1.344700748E0,1.105211023E-2,2.663159184E-2,-1.065263641E-3,2.885351991E-2
1.347209290E0,5.725792143E-3,2.663159184E-2,0.000000000E0,2.724016115E-2
1.349717831E0,1.464737463E-3,2.237053588E-2,-1.065263641E-3,2.244373227E-2
1.352226373E0,-6.657897611E-4,1.491369121E-2,-1.065263641E-3,1.496650420E-2
1.354734915E0,-2.796316985E-3,5.326318089E-3,0.000000000E0,6.015733793E-3
1.357243456E0,-3.861580743E-3,-5.326318089E-3,0.000000000E0,6.578865420E-3
1.359751998E0,-3.861580743E-3,-1.384842768E-2,1.065263641E-3,1.441615558E-2
1.362260540E0,-7.057371549E-3,-2.237053588E-2,2.130527282E-3,2.355390658E-2
1.364769081E0,-9.187898599E-3,-2.556632832E-2,1.065263641E-3,2.718803801E-2
1.367277623E0,-1.131842658E-2,-2.982738242E-2,0.000000000E0,3.190265697E-2
1.369786165E0,-1.131842658E-2,-3.302317113E-2,1.065263641E-3,3.492522581E-2
1.372294706E0,-1.025316212E-2,-3.515370190E-2,1.065263641E-3,3.663393069E-2
1.374803248E0,-1.025316212E-2,-3.302317113E-2,0.000000000E0,3.457827591E-2
1.377311790E0,-9.187898599E-3,-2.982738242E-2,-1.065263641E-3,3.122859281E-2
1.379820331E0,-8.122635074E-3,-2.343579940E-2,-1.065263641E-3,2.482637068E-2
1.382328873E0,-7.057371549E-3,-1.597895473E-2,-1.065263641E-3,1.750052211E-2
1.384837415E0,-3.861580743E-3,-1.065263618E-2,-1.065263641E-3,1.138091604E-2
1.387345956E0,3.994738800E-4,-7.456845604E-3,-1.065263641E-3,7.543136772E-3
1.389854498E0,6.791055668E-3,-7.456845604E-3,-1.065263641E-3,1.014188198E-2
1.392363040E0,1.744369231E-2,-9.587372653E-3,0.000000000E0,1.990477621E-2
1.394871581E0,2.916159295E-2,-1.597895473E-2,0.000000000E0,3.325245100E-2
1.397380123E0,4.087949172E-2,-1.810948178E-2,0.000000000E0,4.471114149E-2
1.399888665E0,4.940159991E-2,-1.597895473E-2,-1.065263641E-3,5.193245474E-2
1.402397206E0,5.153212696E-2,-4.261054564E-3,-1.065263641E-3,5.171896637E-2
1.404905748E0,4.407528415E-2,2.237053588E-2,-2.130527282E-3,4.947333317E-2
1.407414290E0,2.809632942E-2,5.645897239E-2,-3.195791040E-3,6.314453556E-2
1.409922831E0,3.595264861E-3,9.267793596E-2,-2.130527282E-3,9.277211267E-2
1.412431373E0,-2.090579830E-2,1.225053221E-1,-2.130527282E-3,1.242945916E-1
1.414939915E0,-3.795001656E-2,1.331579536E-1,-1.065263641E-3,1.384643606E-1
1.417448456E0,-4.327633604E-2,1.193095297E-1,0.000000000E0,1.269157403E-1
1.419956998E0,-3.581948951E-2,7.989477366E-2,1.065263641E-3,8.756337975E-2
1.422465540E0,-1.664474420E-2,2.450106293E-2,2.130527282E-3,2.969661160E-2
1.424974081E0,3.595264861E-3,-3.621896356E-2,1.065263641E-3,3.641255330E-2
1.427482623E0,1.637842879E-2,-8.309056610E-2,1.065263641E-3,8.469610316E-2
1.429991165E0,1.531316526E-2,-1.065263674E-1,0.000000000E0,1.076213732E-1
1.432499706E0,2.530001104E-3,-1.043958366E-1,-1.065263641E-3,1.044319223E-1
1.435008248E0,-1.771000773E-2,-8.522108942E-2,-1.065263641E-3,8.704833854E-2
1.437516842E0,-3.795001656E-2,-6.072002649E-2,1.065263641E-3,7.161187165E-2
1.440025436E0,-4.966791719E-2,-4.474107176E-2,3.195791040E-3,6.692442440E-2
1.442534029E0,-5.073318258E-2,-3.834949061E-2,3.195791040E-3,6.367693715E-2
1.445042623E0,-4.008054361E-2,-4.261054471E-2,3.195791040E-3,5.858601861E-2
1.447551217E0,-2.303632535E-2,-5.006739125E-2,1.065263641E-3,5.512305088E-2
1.450059811E0,-8.122635074E-3,-5.326318368E-2,0.000000000E0,5.387897490E-2
1.452568404E0,3.994738800E-4,-4.261054471E-2,-1.065263641E-3,4.262573034E-2
1.455076998E0,1.464737463E-3,-2.130527236E-2,-2.130527282E-3,2.146157572E-2
1.457585592E0,-2.796316985E-3,3.195791040E-3,-2.130527282E-3,4.750959435E-3
1.460094186E0,-7.057371549E-3,2.663159184E-2,0.000000000E0,2.755082897E-2
1.462602779E0,-5.992108025E-3,3.834949061E-2,1.065263641E-3,3.882941637E-2
1.465111373E0,1.464737463E-3,4.048001766E-2,1.065263641E-3,4.052051422E-2
1.467619967E0,1.424790081E-2,3.302317113E-2,0.000000000E0,3.596571296E-2
1.470128561E0,2.809632942E-2,2.450106293E-2,0.000000000E0,3.727875818E-2
1.472637154E0,3.448791057E-2,2.024000883E-2,-2.130527282E-3,4.004513802E-2
1.475145748E0,3.448791057E-2,2.556632832E-2,-3.195791040E-3,4.304957839E-2
1.477654342E0,2.703106403E-2,3.621896356E-2,-2.130527282E-3,4.524412548E-2
1.480162936E0,1.531316526E-2,4.793686420E-2,-1.065263641E-3,5.033458817E-2
1.482671529E0,6.791055668E-3,5.432844535E-2,-1.065263641E-3,5.476160331E-2
1.485180123E0,2.530001104E-3,5.219791830E-2,0.000000000E0,5.225919613E-2
1.487688717E0,2.530001104E-3,4.048001766E-2,0.000000000E0,4.055900314E-2
1.490197311E0,5.725792143E-3,2.343579940E-2,0.000000000E0,2.412511947E-2
1.492705904E0,7.856319658E-3,4.261054564E-3,-1.065263641E-3,9.000729482E-3
1.495214498E0,4.660528619E-3,-8.522109129E-3,0.000000000E0,9.713231749E-3
1.497723092E0,3.994738800E-4,-1.704421826E-2,-1.065263641E-3,1.708214688E-2
1.500231686E0,-5.992108025E-3,-2.024000883E-2,1.065263641E-3,2.113523368E-2
1.502740279E0,-1.238369010E-2,-2.343579940E-2,1.065263641E-3,2.652785821E-2
1.505248873E0,-1.664474420E-2,-2.769685537E-2,2.130527282E-3,3.238367572E-2
1.507757467E0,-1.664474420E-2,-3.302317113E-2,2.130527282E-3,3.704209075E-2
1.510266061E0,-1.451421715E-2,-3.941475600E-2,2.130527282E-3,4.205620806E-2
1.512774654E0,-1.131842658E-2,-4.367581010E-2,2.130527282E-3,4.516882016E-2
1.515283248E0,-9.187898599E-3,-4.261054471E-2,0.000000000E0,4.358986122E-2
1.517791842E0,-1.025316212E-2,-3.515370190E-2,-1.065263641E-3,3.663393069E-2
1.520300436E0,-1.238369010E-2,-2.663159184E-2,-1.065263641E-3,2.938932206E-2
1.522809029E0,-1.451421715E-2,-1.278316416E-2,0.000000000E0,1.934093549E-2
1.525317623E0,-1.344895363E-2,-3.195791040E-3,2.130527282E-3,1.398665723E-2
1.527826217E0,-9.187898599E-3,2.130527282E-3,3.195791040E-3,9.958398844E-3
1.530334811E0,-2.796316985E-3,3.195791040E-3,1.065263641E-3,4.378042448E-3
1.532843404E0,5.725792143E-3,1.065263641E-3,-1.065263641E-3,5.920664567E-3
1.535351998E0,1.211737376E-2,2.130527282E-3,-2.130527282E-3,1.248635414E-2
1.537860592E0,1.531316526E-2,6.391582079E-3,-3.195791040E-3,1.689847426E-2
1.540369186E0,1.211737376E-2,1.384842768E-2,-2.130527282E-3,1.852427711E-2
1.542877779E0,7.856319658E-3,2.237053588E-2,-1.065263641E-3,2.373388760E-2
1.545386373E0,4.660528619E-3,3.089264594E-2,0.000000000E0,3.124221663E-2
1.547894967E0,2.530001104E-3,3.302317113E-2,-1.065263641E-3,3.313707174E-2
1.550403561E0,3.595264861E-3,3.195790946E-2,1.065263641E-3,3.217714551E-2
1.552912154E0,5.725792143E-3,2.556632832E-2,0.000000000E0,2.619965342E-2
1.555420748E0,7.856319658E-3,1.810948178E-2,1.065263641E-3,1.976891185E-2
1.557929290E0,8.921583183E-3,1.171789970E-2,0.000000000E0,1.472765494E-2
1.560437831E0,8.921583183E-3,5.326318089E-3,1.065263641E-3,1.044505134E-2
1.562946373E0,6.791055668E-3,-0.000000000E0,1.065263641E-3,6.874098029E-3
1.565454915E0,3.595264861E-3,-2.130527282E-3,1.065263641E-3,4.312755795E-3
1.567963456E0,1.464737463E-3,-5.326318089E-3,1.065263641E-3,5.625824992E-3
1.570471998E0,-6.657897611E-4,-6.391582079E-3,-1.065263641E-3,6.513860922E-3
1.572980540E0,-3.861580743E-3,-8.522109129E-3,-2.130527282E-3,9.595691550E-3
1.575489081E0,-5.992108025E-3,-1.065263618E-2,-1.065263641E-3,1.226861046E-2
1.577997623E0,-9.187898599E-3,-1.278316416E-2,0.000000000E0,1.574251462E-2
1.580506165E0,-1.131842658E-2,-1.278316416E-2,-2.130527282E-3,1.720625504E-2
1.583014706E0,-1.131842658E-2,-1.491369121E-2,-1.065263641E-3,1.875259322E-2
1.585523248E0,-1.131842658E-2,-1.704421826E-2,0.000000000E0,2.046001359E-2
1.588031790E0,-9.187898599E-3,-1.917474531E-2,-1.065263641E-3,2.128903767E-2
1.590540331E0,-5.992108025E-3,-2.130527236E-2,-1.065263641E-3,2.215749930E-2
1.593048873E0,-2.796316985E-3,-1.917474531E-2,0.000000000E0,1.937757070E-2
1.595557415E0,1.464737463E-3,-1.704421826E-2,0.000000000E0,1.710704042E-2
1.598065956E0,2.530001104E-3,-1.171789970E-2,0.000000000E0,1.198791387E-2
1.600574498E0,1.464737463E-3,-5.326318089E-3,1.065263641E-3,5.625824992E-3
1.603083040E0,3.994738800E-4,2.130527282E-3,0.000000000E0,2.167654465E-3
1.605591581E0,3.994738800E-4,9.587372653E-3,1.065263641E-3,9.654640356E-3
1.608100123E0,3.994738800E-4,1.597895473E-2,1.065263641E-3,1.601940574E-2
1.610608665E0,1.464737463E-3,1.917474531E-2,2.130527282E-3,1.934826762E-2
1.613117206E0,4.660528619E-3,1.917474531E-2,1.065263641E-3,1.976173502E-2
1.615625748E0,6.791055668E-3,1.704421826E-2,1.065263641E-3,1.837820992E-2
1.618134290E0,7.856319658E-3,1.278316416E-2,1.065263641E-3,1.504213519E-2
1.620642831E0,7.856319658E-3,1.171789970E-2,1.065263641E-3,1.414799345E-2
1.623151373E0,5.725792143E-3,1.065263618E-2,0.000000000E0,1.209393870E-2
1.625659915E0,4.660528619E-3,9.587372653E-3,0.000000000E0,1.066012389E-2
1.628168456E0,3.595264861E-3,8.522109129E-3,1.065263641E-3,9.310588598E-3
1.630676998E0,2.530001104E-3,6.391582079E-3,-2.130527282E-3,7.196691848E-3
1.633185540E0,1.464737463E-3,3.195791040E-3,-1.065263641E-3,3.673325854E-3
1.635694081E0,3.994738800E-4,1.065263641E-3,-1.065263641E-3,1.558573909E-3
1.638202623E0,-6.657897611E-4,-2.130527282E-3,-1.065263641E-3,2.473299240E-3
1.640711165E0,-1.731053460E-3,-4.261054564E-3,1.065263641E-3,4.721008230E-3
1.643219706E0,-2.796316985E-3,-5.326318089E-3,1.065263641E-3,6.109323996E-3
1.645728248E0,-4.926844500E-3,-5.326318089E-3,0.000000000E0,7.255581377E-3
1.648236790E0,-4.926844500E-3,-7.456845604E-3,1.065263641E-3,9.000729399E-3
1.650745331E0,-5.992108025E-3,-9.587372653E-3,1.065263641E-3,1.135596141E-2
1.653253873E0,-5.992108025E-3,-1.065263618E-2,0.000000000E0,1.222227541E-2
1.655762415E0,-4.926844500E-3,-1.065263618E-2,-1.065263641E-3,1.178504310E-2
1.658270956E0,-3.861580743E-3,-1.278316416E-2,0.000000000E0,1.335369206E-2
1.660779498E0,-2.796316985E-3,-1.278316416E-2,1.065263641E-3,1.312872656E-2
1.663288040E0,-1.731053460E-3,-1.065263618E-2,1.065263641E-3,1.084481398E-2
1.665796581E0,-2.796316985E-3,-8.522109129E-3,3.195791040E-3,9.521492165E-3
1.668305123E0,-2.796316985E-3,-4.261054564E-3,2.130527282E-3,5.524049346E-3
1.670813665E0,-1.731053460E-3,-1.065263641E-3,0.000000000E0,2.032568008E-3
1.673322206E0,-6.657897611E-4,2.130527282E-3,0.000000000E0,2.232134070E-3
1.675830748E0,-6.657897611E-4,5.326318089E-3,2.130527282E-3,5.775126569E-3
1.678339290E0,1.464737463E-3,6.391582079E-3,1.065263641E-3,6.643234448E-3
1.680847831E0,2.530001104E-3,6.391582079E-3,1.065263641E-3,6.956149343E-3
1.683356425E0,2.530001104E-3,7.456845604E-3,1.065263641E-3,7.946083222E-3
1.685865019E0,3.595264861E-3,8.522109129E-3,1.065263641E-3,9.310588598E-3
1.688373613E0,3.595264861E-3,8.522109129E-3,0.000000000E0,9.249447195E-3
1.690882206E0,2.530001104E-3,7.456845604E-3,0.000000000E0,7.874354065E-3
1.693390800E0,1.464737463E-3,5.326318089E-3,0.000000000E0,5.524049259E-3
1.695899394E0,2.530001104E-3,3.195791040E-3,0.000000000E0,4.076025755E-3
1.698407988E0,3.595264861E-3,1.065263641E-3,1.065263641E-3,3.898140925E-3
1.700916581E0,6.791055668E-3,-4.261054564E-3,1.065263641E-3,8.087633134E-3
1.703425175E0,1.211737376E-2,-1.171789970E-2,1.065263641E-3,1.689007717E-2
1.705933769E0,2.277000993E-2,-2.769685537E-2,1.065263641E-3,3.587093442E-2
1.708442363E0,3.874896467E-2,-4.687159881E-2,2.130527282E-3,6.085201874E-2
1.710950956E0,5.898897350E-2,-6.817687303E-2,2.130527282E-3,9.017939985E-2
1.713459550E0,8.242477477E-2,-8.202529699E-2,1.065263641E-3,1.162889833E-1
1.715968144E0,9.946899116E-2,-7.882951200E-2,2.130527282E-3,1.269358551E-1
1.718476738E0,9.946899116E-2,-4.687159881E-2,0.000000000E0,1.099592060E-1
1.720985331E0,6.857634336E-2,2.237053588E-2,-2.130527282E-3,7.216436025E-2
1.723493925E0,8.921583183E-3,1.225053221E-1,-3.195791040E-3,1.228713216E-1
1.726002519E0,-6.458161026E-2,2.226400971E-1,-7.456845604E-3,2.319374954E-1
1.728511113E0,-1.210405827E-1,2.812296152E-1,-8.522109129E-3,3.062899696E-1
1.731019706E0,-1.402153224E-1,2.759032845E-1,-4.261054564E-3,3.095175530E-1
1.733528300E0,-1.178447902E-1,1.981390417E-1,2.130527282E-3,2.305450359E-1
1.736036894E0,-6.138581783E-2,6.924213469E-2,8.522109129E-3,9.292641277E-2
1.738545488E0,7.856319658E-3,-7.776424289E-2,1.065263618E-2,7.888268434E-2
1.741054081E0,6.325002760E-2,-1.970737725E-1,4.261054564E-3,2.070188262E-1
1.743562675E0,8.029424399E-2,-2.535327375E-1,-5.326318089E-3,2.659969629E-1
1.746071269E0,5.472791940E-2,-2.364885211E-1,-8.522109129E-3,2.428880238E-1
1.748579863E0,-4.926844500E-3,-1.640505940E-1,-4.261054564E-3,1.641798641E-1
1.751088456E0,-6.777740270E-2,-7.669898123E-2,0.000000000E0,1.023548242E-1
1.753597050E0,-1.103879437E-1,-1.171789970E-2,5.326318089E-3,1.111358491E-1
1.756105644E0,-1.210405827E-1,1.384842768E-2,7.456845604E-3,1.220582080E-1
1.758614238E0,-9.867004305E-2,-5.326318089E-3,6.391582079E-3,9.902019684E-2
1.761122831E0,-5.286370963E-2,-5.326318368E-2,3.195791040E-3,7.511159439E-2
1.763631425E0,1.464737463E-3,-1.054610983E-1,0.000000000E0,1.054712696E-1
1.766140019E0,4.301001877E-2,-1.320926845E-1,-2.130527282E-3,1.389347982E-1
1.768648613E0,5.472791940E-2,-1.118526831E-1,-3.195791040E-3,1.245647661E-1
1.771157206E0,3.768370301E-2,-4.793686420E-2,-4.261054564E-3,6.112414423E-2
1.773665800E0,4.660528619E-3,3.195790946E-2,-3.195791040E-3,3.245368369E-2
1.776174394E0,-2.729738131E-2,1.022653133E-1,0.000000000E0,1.058458375E-1
1.778682988E0,-3.901528195E-2,1.406148076E-1,1.065263641E-3,1.459309807E-1
1.781191581E0,-2.303632535E-2,1.363537461E-1,4.261054564E-3,1.383516279E-1
1.783700175E0,1.211737376E-2,9.587372839E-2,4.261054564E-3,9.673034234E-2
1.786208769E0,5.153212696E-2,4.474107176E-2,1.065263641E-3,6.825290029E-2
1.788717363E0,7.922898233E-2,9.587372653E-3,-3.195791040E-3,7.987091107E-2
1.791225956E0,8.242477477E-2,3.195791040E-3,-6.391582079E-3,8.273396459E-2
1.793734550E0,6.538055837E-2,2.343579940E-2,-5.326318089E-3,6.965790530E-2
1.796243144E0,3.555317223E-2,5.752423778E-2,-3.195791040E-3,6.769991926E-2
1.798751738E0,8.921583183E-3,8.522108942E-2,1.065263641E-3,8.569342749E-2
1.801260331E0,-5.992108025E-3,9.161267430E-2,2.130527282E-3,9.183314541E-2
1.803768925E0,-9.187898599E-3,7.669898123E-2,2.130527282E-3,7.727671285E-2
1.806277467E0,-6.657897611E-4,4.367581010E-2,2.130527282E-3,4.373281160E-2
1.808786008E0,7.856319658E-3,7.456845604E-3,-1.065263641E-3,1.088398326E-2
1.811294550E0,7.856319658E-3,-1.917474531E-2,-2.130527282E-3,2.083102884E-2
1.813803092E0,3.994738800E-4,-3.302317113E-2,-1.065263641E-3,3.304276316E-2
1.816311633E0,-1.451421715E-2,-3.621896356E-2,-1.065263641E-3,3.903345498E-2
1.818820175E0,-2.836264484E-2,-3.728422895E-2,1.065263641E-3,4.685817044E-2
1.821328717E0,-3.475422785E-2,-4.261054471E-2,3.195791040E-3,5.507928789E-2
1.823837258E0,-3.262370080E-2,-5.645897239E-2,3.195791040E-3,6.528502507E-2
1.826345800E0,-2.090579830E-2,-7.669898123E-2,2.130527282E-3,7.952562650E-2
1.828854342E0,-1.025316212E-2,-9.054741263E-2,0.000000000E0,9.112607348E-2
1.831362883E0,-4.926844500E-3,-8.948214352E-2,1.065263641E-3,8.962400679E-2
1.833871425E0,-8.122635074E-3,-7.137266546E-2,-1.065263641E-3,7.184127896E-2
1.836379967E0,-1.771000773E-2,-4.154528305E-2,-2.130527282E-3,4.521276439E-2
1.838888508E0,-2.729738131E-2,-7.456845604E-3,1.065263641E-3,2.831759805E-2
1.841397050E0,-3.262370080E-2,1.597895473E-2,3.195791040E-3,3.646705264E-2
1.843905592E0,-2.516685426E-2,2.663159184E-2,2.130527282E-3,3.670356092E-2
1.846414133E0,-9.187898599E-3,2.237053588E-2,3.195791040E-3,2.439408610E-2
1.848922675E0,9.986846708E-3,1.171789970E-2,2.130527282E-3,1.554301860E-2
1.851431217E0,2.383527346E-2,3.195791040E-3,0.000000000E0,2.404856215E-2
1.853939758E0,3.022685647E-2,3.195791040E-3,-2.130527282E-3,3.046990448E-2
1.856448300E0,2.703106403E-2,1.278316416E-2,-2.130527282E-3,2.997710552E-2
1.858956842E0,1.957421936E-2,2.876211889E-2,-2.130527282E-3,3.485611414E-2
1.861465383E0,9.986846708E-3,4.367581010E-2,-1.065263641E-3,4.481571467E-2
1.863973925E0,5.725792143E-3,5.113265663E-2,2.130527282E-3,5.149633401E-2
1.866482467E0,5.725792143E-3,4.900212586E-2,1.065263641E-3,4.934701431E-2
1.868991008E0,9.986846708E-3,4.048001766E-2,-1.065263641E-3,4.170735815E-2
1.871499550E0,1.318263728E-2,2.876211889E-2,-1.065263641E-3,3.165716657E-2
1.874008092E0,1.424790081E-2,1.810948178E-2,-1.065263641E-3,2.306709332E-2
1.876516633E0,1.318263728E-2,1.065263618E-2,0.000000000E0,1.694876347E-2
1.879025175E0,6.791055668E-3,8.522109129E-3,1.065263641E-3,1.094895281E-2
1.881533717E0,1.464737463E-3,4.261054564E-3,1.065263641E-3,4.629992274E-3
1.884042258E0,-1.731053460E-3,-2.130527282E-3,1.065263641E-3,2.944567745E-3
1.886550800E0,-3.861580743E-3,-1.065263618E-2,1.065263641E-3,1.138091604E-2
1.889059342E0,-4.926844500E-3,-2.130527236E-2,1.065263641E-3,2.189345138E-2
1.891567883E0,-5.992108025E-3,-2.876211889E-2,-1.065263641E-3,2.939897325E-2
1.894076425E0,-9.187898599E-3,-3.195790946E-2,-1.065263641E-3,3.326950923E-2
1.896584967E0,-1.344895363E-2,-3.089264594E-2,0.000000000E0,3.369317330E-2
1.899093508E0,-1.771000773E-2,-2.769685537E-2,0.000000000E0,3.287491705E-2
1.901602050E0,-1.877527125E-2,-2.450106293E-2,0.000000000E0,3.086766747E-2
1.904110592E0,-1.771000773E-2,-2.343579940E-2,1.065263641E-3,2.939414660E-2
1.906619133E0,-1.451421715E-2,-2.343579940E-2,0.000000000E0,2.756626912E-2
1.909127675E0,-8.122635074E-3,-2.556632832E-2,-1.065263641E-3,2.684677133E-2
1.911636217E0,-6.657897611E-4,-2.343579940E-2,-1.065263641E-3,2.346944304E-2
1.914144758E0,2.530001104E-3,-1.917474531E-2,0.000000000E0,1.934093491E-2
1.916653300E0,3.595264861E-3,-9.587372653E-3,-1.065263641E-3,1.029458258E-2
1.919161842E0,3.595264861E-3,3.195791040E-3,0.000000000E0,4.810302464E-3
1.921670383E0,1.464737463E-3,1.491369121E-2,0.000000000E0,1.498544765E-2
1.924178925E0,3.595264861E-3,2.343579940E-2,0.000000000E0,2.370996886E-2
1.926687467E0,4.660528619E-3,2.769685537E-2,0.000000000E0,2.808623015E-2
1.929196008E0,7.856319658E-3,2.769685537E-2,0.000000000E0,2.878953900E-2
1.931704602E0,1.105211023E-2,2.556632832E-2,0.000000000E0,2.785294032E-2
1.934213196E0,1.211737376E-2,2.343579940E-2,0.000000000E0,2.638309005E-2
1.936721790E0,1.105211023E-2,2.237053588E-2,0.000000000E0,2.495175377E-2
1.939230383E0,8.921583183E-3,2.130527236E-2,0.000000000E0,2.309781974E-2
1.941738977E0,7.856319658E-3,1.917474531E-2,0.000000000E0,2.072179085E-2
1.944247571E0,5.725792143E-3,1.597895473E-2,0.000000000E0,1.697385313E-2
1.946756165E0,4.660528619E-3,1.065263618E-2,2.130527282E-3,1.182109686E-2
1.949264758E0,4.660528619E-3,3.195791040E-3,1.065263641E-3,5.750512499E-3
1.951773352E0,3.595264861E-3,-3.195791040E-3,1.065263641E-3,4.926844469E-3
1.954281946E0,2.530001104E-3,-7.456845604E-3,0.000000000E0,7.874354065E-3
1.956790540E0,3.994738800E-4,-8.522109129E-3,-1.065263641E-3,8.597715394E-3
1.959299133E0,-3.861580743E-3,-7.456845604E-3,0.000000000E0,8.397401514E-3
1.961807727E0,-8.122635074E-3,-6.391582079E-3,0.000000000E0,1.033583678E-2
1.964316321E0,-1.025316212E-2,-7.456845604E-3,1.065263641E-3,1.272268315E-2
1.966824915E0,-1.131842658E-2,-8.522109129E-3,2.130527282E-3,1.432732601E-2
1.969333508E0,-1.025316212E-2,-1.278316416E-2,2.130527282E-3,1.652500426E-2
1.971842102E0,-8.122635074E-3,-1.810948178E-2,2.130527282E-3,1.996170527E-2
1.974350696E0,-7.057371549E-3,-1.917474531E-2,1.065263641E-3,2.046001313E-2
1.976859290E0,-3.861580743E-3,-2.024000883E-2,1.065263641E-3,2.063260890E-2
1.979367883E0,-2.796316985E-3,-2.024000883E-2,2.130527282E-3,2.054304001E-2
1.981876477E0,-2.796316985E-3,-1.491369121E-2,0.000000000E0,1.517358145E-2
1.984385071E0,-2.796316985E-3,-8.522109129E-3,0.000000000E0,8.969154513E-3
1.986893665E0,-1.731053460E-3,-2.130527282E-3,1.065263641E-3,2.944567745E-3
1.989402258E0,-6.657897611E-4,3.195791040E-3,1.065263641E-3,3.433823379E-3
1.991910852E0,2.530001104E-3,6.391582079E-3,-1.065263641E-3,6.956149343E-3
1.994419446E0,3.595264861E-3,8.522109129E-3,-1.065263641E-3,9.310588598E-3
1.996928040E0,3.595264861E-3,1.278316416E-2,1.065263641E-3,1.332178674E-2
1.999436633E0,4.660528619E-3,1.491369121E-2,0.000000000E0,1.562493880E-2
2.001945227E0,3.595264861E-3,1.597895473E-2,1.065263641E-3,1.641303477E-2
2.004453821E0,3.595264861E-3,1.597895473E-2,1.065263641E-3,1.641303477E-2
2.006962415E0,4.660528619E-3,1.491369121E-2,0.000000000E0,1.562493880E-2
2.009471008E0,5.725792143E-3,9.587372653E-3,1.065263641E-3,1.121771798E-2
2.011979602E0,8.921583183E-3,3.195791040E-3,2.130527282E-3,9.713231870E-3
2.014488196E0,1.531316526E-2,-9.587372653E-3,1.065263641E-3,1.809821901E-2
2.016996790E0,2.596580051E-2,-2.982738242E-2,1.065263641E-3,3.956046416E-2
2.019505383E0,4.407528415E-2,-5.752423778E-2,2.130527282E-3,7.249970863E-2
2.022013977E0,6.538055837E-2,-9.161267430E-2,1.065263641E-3,1.125550278E-1
2.024522571E0,9.414267540E-2,-1.235705838E-1,0.000000000E0,1.553464918E-1
2.027031165E0,1.314269006E-1,-1.438105851E-1,2.130527282E-3,1.948308337E-1
2.029539758E0,1.559279710E-1,-1.267663687E-1,4.261054564E-3,2.010009974E-1
2.032048352E0,1.335574239E-1,-4.900212586E-2,2.130527282E-3,1.422790672E-1
2.034556946E0,4.833633825E-2,1.012000442E-1,-3.195791040E-3,1.121965401E-1
2.037065540E0,-7.310371846E-2,2.769685388E-1,-1.171789970E-2,2.866932756E-1
2.039574133E0,-1.817606091E-1,4.058654606E-1,-1.704421826E-2,4.450328039E-1
2.042082727E0,-2.350237966E-1,4.399538934E-1,-1.278316416E-2,4.989579367E-1
2.044591321E0,-2.233058959E-1,3.707117438E-1,-4.261054564E-3,4.327942661E-1
2.047099915E0,-1.529984921E-1,2.077264041E-1,8.522109129E-3,2.581306334E-1
2.049608508E0,-4.114580899E-2,-2.663159184E-2,2.024000883E-2,5.302713682E-2
2.052117102E0,7.603318989E-2,-2.609896064E-1,2.450106293E-2,2.729412440E-1
2.054625644E0,1.527321786E-1,-4.090612531E-1,1.171789970E-2,4.368014839E-1
2.057134186E0,1.516669095E-1,-4.303665161E-1,-6.391582079E-3,4.563540752E-1
2.059642727E0,7.709845901E-2,-3.376885653E-1,-1.384842768E-2,3.466547539E-1
2.062151269E0,-3.581948951E-2,-1.736379713E-1,-9.587372653E-3,1.775530867E-1
2.064659811E0,-1.391500682E-1,-1.171789970E-2,-2.130527282E-3,1.396588336E-1
2.067168352E0,-1.956090331E-1,8.735162020E-2,6.391582079E-3,2.143223080E-1
2.069676894E0,-1.966743022E-1,1.033305749E-1,8.522109129E-3,2.223299692E-1
2.072185436E0,-1.455416381E-1,3.941475600E-2,7.456845604E-3,1.509685264E-1
2.074693977E0,-5.605949834E-2,-7.882951200E-2,4.261054564E-3,9.682414938E-2
2.077202519E0,4.194475710E-2,-1.938779801E-1,1.065263641E-3,1.983662487E-1
2.079711061E0,1.079910994E-1,-2.460758984E-1,-1.065263641E-3,2.687313902E-1
2.082219602E0,1.165132076E-1,-2.045306265E-1,-6.391582079E-3,2.354760222E-1
2.084728144E0,7.177213579E-2,-8.415582776E-2,-9.587372653E-3,1.110196403E-1
2.087236686E0,5.725792143E-3,6.391581893E-2,-6.391582079E-3,6.448929312E-2
2.089745227E0,-5.073318258E-2,1.885516644E-1,-1.065263641E-3,1.952606482E-1
2.092253769E0,-6.990792602E-2,2.524674833E-1,4.261054564E-3,2.620021084E-1
2.094762311E0,-4.540686309E-2,2.386190593E-1,9.587372653E-3,2.430900171E-1
2.097270852E0,1.211737376E-2,1.672463864E-1,9.587372653E-3,1.679586325E-1
2.099779394E0,7.816372067E-2,7.669898123E-2,4.261054564E-3,1.095922330E-1
2.102287936E0,1.229047924E-1,1.278316416E-2,-4.261054564E-3,1.236412305E-1
2.104796477E0,1.303616315E-1,-5.326318089E-3,-1.278316416E-2,1.310951331E-1
2.107305019E0,1.037300453E-1,2.024000883E-2,-1.384842768E-2,1.065896768E-1
2.109813561E0,5.898897350E-2,6.817687303E-2,-7.456845604E-3,9.046208906E-2
2.112322102E0,1.850895584E-2,1.139832065E-1,1.065263641E-3,1.154811135E-1
2.114830644E0,-7.057371549E-3,1.320926845E-1,4.261054564E-3,1.323496898E-1
2.117339186E0,-1.238369010E-2,1.150484756E-1,4.261054564E-3,1.157914681E-1
2.119847727E0,-2.796316985E-3,7.137266546E-2,1.065263641E-3,7.143536625E-2
2.122356269E0,7.856319658E-3,2.237053588E-2,-3.195791040E-3,2.392437490E-2
2.124864811E0,8.921583183E-3,-1.597895473E-2,-3.195791040E-3,1.857780184E-2
2.127373352E0,-1.731053460E-3,-3.834949061E-2,-2.130527282E-3,3.844761531E-2
2.129881894E0,-2.303632535E-2,-4.580633715E-2,1.065263641E-3,5.128379466E-2
2.132390436E0,-4.221107066E-2,-5.113265663E-2,3.195791040E-3,6.638174554E-2
2.134898977E0,-5.179844424E-2,-6.498108059E-2,3.195791040E-3,8.316148592E-2
2.137407519E0,-4.647212476E-2,-8.948214352E-2,3.195791040E-3,1.008807488E-1
2.139916061E0,-3.155843541E-2,-1.182442605E-1,3.195791040E-3,1.224248875E-1
2.142424602E0,-1.557948068E-2,-1.374190152E-1,3.195791040E-3,1.383362535E-1
2.144933144E0,-8.122635074E-3,-1.352884769E-1,1.065263641E-3,1.355362829E-1
2.147441686E0,-1.344895363E-2,-1.086568907E-1,-1.065263641E-3,1.094912281E-1
2.149950227E0,-2.836264484E-2,-6.285055727E-2,0.000000000E0,6.895384087E-2
2.152458769E0,-4.327633604E-2,-1.704421826E-2,1.065263641E-3,4.652398762E-2
2.154967311E0,-4.753739014E-2,1.597895473E-2,3.195791040E-3,5.025279630E-2
2.157475852E0,-3.795001656E-2,2.876211889E-2,4.261054564E-3,4.780815648E-2
2.159984394E0,-1.557948068E-2,2.343579940E-2,4.261054564E-3,2.846249283E-2
2.162492936E0,9.986846708E-3,1.065263618E-2,2.130527282E-3,1.475652097E-2
2.165001477E0,3.022685647E-2,2.130527282E-3,-1.065263641E-3,3.032056703E-2
2.167510019E0,3.874896467E-2,4.261054564E-3,-2.130527282E-3,3.904072227E-2
2.170018561E0,3.555317223E-2,2.024000883E-2,-3.195791040E-3,4.103533957E-2
2.172527102E0,2.490053698E-2,4.261054471E-2,-3.195791040E-3,4.945612544E-2
2.175035644E0,1.424790081E-2,6.178529188E-2,0.000000000E0,6.340682116E-2
2.177544186E0,9.986846708E-3,7.030740380E-2,1.065263641E-3,7.102114420E-2
2.180052779E0,1.318263728E-2,6.498108059E-2,1.065263641E-3,6.631332858E-2
2.182561373E0,1.957421936E-2,5.326318368E-2,0.000000000E0,5.674607299E-2
2.185069967E0,2.596580051E-2,3.941475600E-2,-2.130527282E-3,4.724706269E-2
2.187578561E0,2.703106403E-2,2.982738242E-2,-4.261054564E-3,4.047848503E-2
2.190087154E0,2.170474641E-2,2.663159184E-2,-3.195791040E-3,3.450435887E-2
2.192595748E0,1.105211023E-2,2.556632832E-2,-1.065263641E-3,2.787330391E-2
2.195104342E0,1.464737463E-3,2.556632832E-2,0.000000000E0,2.560825257E-2
2.197612936E0,-5.992108025E-3,1.704421826E-2,2.130527282E-3,1.819202795E-2
2.200121529E0,-8.122635074E-3,1.065263641E-3,2.130527282E-3,8.464699266E-3
2.202630123E0,-7.057371549E-3,-1.917474531E-2,2.130527282E-3,2.054304012E-2
2.205138717E0,-4.926844500E-3,-3.728422895E-2,1.065263641E-3,3.762342770E-2
2.207647311E0,-5.992108025E-3,-4.793686420E-2,0.000000000E0,4.830991935E-2
2.210155904E0,-1.238369010E-2,-5.006739125E-2,0.000000000E0,5.157615192E-2
2.212664498E0,-1.984053478E-2,-4.367581010E-2,0.000000000E0,4.797106636E-2
2.215173092E0,-2.623211779E-2,-3.834949061E-2,1.065263641E-3,4.647517854E-2
2.217681686E0,-2.729738131E-2,-3.408843651E-2,1.065263641E-3,4.368413118E-2
2.220190279E0,-2.410159074E-2,-3.408843651E-2,1.065263641E-3,4.176174047E-2
2.222698873E0,-1.557948068E-2,-3.728422895E-2,1.065263641E-3,4.042237911E-2
2.225207467E0,-7.057371549E-3,-3.834949061E-2,1.065263641E-3,3.900800828E-2
2.227716061E0,-6.657897611E-4,-3.195790946E-2,0.000000000E0,3.196484402E-2
2.230224654E0,2.530001104E-3,-2.130527236E-2,-1.065263641E-3,2.148139480E-2
2.232733248E0,3.595264861E-3,-6.391582079E-3,-1.065263641E-3,7.410333159E-3
2.235241842E0,1.464737463E-3,1.065263618E-2,-1.065263641E-3,1.080550323E-2
2.237750436E0,1.464737463E-3,2.450106293E-2,0.000000000E0,2.454480679E-2
2.240259029E0,4.660528619E-3,3.302317113E-2,1.065263641E-3,3.336742641E-2
2.242767623E0,8.921583183E-3,3.408843651E-2,1.065263641E-3,3.525267277E-2
2.245276217E0,1.318263728E-2,3.302317113E-2,0.000000000E0,3.555716182E-2
2.247784811E0,1.531316526E-2,2.982738242E-2,-1.065263641E-3,3.354549983E-2
2.250293404E0,1.637842879E-2,2.876211889E-2,0.000000000E0,3.309852584E-2
2.252801998E0,1.531316526E-2,2.982738242E-2,-2.130527282E-3,3.359620393E-2
2.255310592E0,1.211737376E-2,2.876211889E-2,-1.065263641E-3,3.122859293E-2
2.257819186E0,8.921583183E-3,2.769685537E-2,1.065263641E-3,2.911778203E-2
2.260327779E0,7.856319658E-3,2.343579940E-2,0.000000000E0,2.471757375E-2
2.262836373E0,7.856319658E-3,1.278316416E-2,-1.065263641E-3,1.504213519E-2
2.265344967E0,6.791055668E-3,4.261054564E-3,-1.065263641E-3,8.087633134E-3
2.267853561E0,6.791055668E-3,-4.261054564E-3,0.000000000E0,8.017170516E-3
2.270362154E0,5.725792143E-3,-8.522109129E-3,0.000000000E0,1.026698786E-2
2.272870748E0,1.464737463E-3,-7.456845604E-3,0.000000000E0,7.599342221E-3
2.275379342E0,-4.926844500E-3,-6.391582079E-3,1.065263641E-3,8.140080149E-3
2.277887936E0,-1.025316212E-2,-7.456845604E-3,1.065263641E-3,1.272268315E-2
2.280396529E0,-1.451421715E-2,-9.587372653E-3,0.000000000E0,1.739483297E-2
2.282905123E0,-1.557948068E-2,-1.384842768E-2,1.065263641E-3,2.087184597E-2
2.285413717E0,-1.238369010E-2,-2.024000883E-2,1.065263641E-3,2.375181098E-2
2.287922311E0,-1.025316212E-2,-2.663159184E-2,2.130527282E-3,2.861657149E-2
2.290430904E0,-8.122635074E-3,-2.982738242E-2,0.000000000E0,3.091358831E-2
2.292939498E0,-5.992108025E-3,-2.982738242E-2,0.000000000E0,3.042331508E-2
2.295448092E0,-4.926844500E-3,-2.663159184E-2,-1.065263641E-3,2.710443261E-2
2.297956686E0,-4.926844500E-3,-1.917474531E-2,0.000000000E0,1.979759213E-2
2.300465279E0,-2.796316985E-3,-1.278316416E-2,1.065263641E-3,1.312872656E-2
2.302973821E0,-2.796316985E-3,-6.391582079E-3,1.065263641E-3,7.057371804E-3
2.305482363E0,-6.657897611E-4,2.130527282E-3,0.000000000E0,2.232134070E-3
2.307990904E0,1.464737463E-3,7.456845604E-3,0.000000000E0,7.599342221E-3
2.310499446E0,3.595264861E-3,1.171789970E-2,1.065263641E-3,1.230324711E-2
2.313007988E0,3.595264861E-3,1.704421826E-2,-1.065263641E-3,1.745182203E-2
2.315516529E0,4.660528619E-3,2.024000883E-2,-1.065263641E-3,2.079695341E-2
2.318025071E0,3.595264861E-3,2.237053588E-2,-1.065263641E-3,2.268262753E-2
2.320533613E0,3.595264861E-3,2.130527236E-2,0.000000000E0,2.160649346E-2
2.323042154E0,5.725792143E-3,1.810948178E-2,0.000000000E0,1.899310470E-2
2.325550696E0,6.791055668E-3,1.171789970E-2,1.065263641E-3,1.358537438E-2
2.328059238E0,7.856319658E-3,5.326318089E-3,1.065263641E-3,9.551241259E-3
2.330567779E0,8.921583183E-3,1.065263641E-3,0.000000000E0,8.984955933E-3
2.333076321E0,7.856319658E-3,-0.000000000E0,-1.065263641E-3,7.928211980E-3
2.335584863E0,4.660528619E-3,-1.065263641E-3,0.000000000E0,4.780723129E-3
2.338093404E0,3.994738800E-4,1.065263641E-3,1.065263641E-3,1.558573909E-3
2.340601946E0,-3.861580743E-3,2.130527282E-3,1.065263641E-3,4.537150973E-3
2.343110488E0,-7.057371549E-3,1.065263641E-3,0.000000000E0,7.137316009E-3
2.345619029E0,-5.992108025E-3,-1.065263641E-3,1.065263641E-3,6.178586556E-3
2.348127571E0,-4.926844500E-3,-6.391582079E-3,1.065263641E-3,8.140080149E-3
2.350636113E0,3.994738800E-4,-1.704421826E-2,1.065263641E-3,1.708214688E-2
2.353144654E0,9.986846708E-3,-3.515370190E-2,3.195791040E-3,3.668423292E-2
2.355653196E0,2.703106403E-2,-6.178529188E-2,2.130527282E-3,6.747325294E-2
2.358161738E0,4.514054582E-2,-1.022653133E-1,-1.065263641E-3,1.117899725E-1
2.360670279E0,7.283740491E-2,-1.512674391E-1,-3.195791040E-3,1.679206324E-1
2.363178821E0,1.154479459E-1,-1.992042959E-1,0.000000000E0,2.302402652E-1
2.365687363E0,1.719069183E-1,-2.269011587E-1,6.391582079E-3,2.847401916E-1
2.368195904E0,2.081258893E-1,-1.928127259E-1,9.587372653E-3,2.838750619E-1
2.370704446E0,1.665806025E-1,-6.285055727E-2,7.456845604E-3,1.781990298E-1
2.373212988E0,3.342264518E-2,1.661811322E-1,-8.522109129E-3,1.697229161E-1
2.375721529E0,-1.348890066E-1,4.175833464E-1,-2.343579940E-2,4.394543571E-1
2.378230071E0,-2.680469751E-1,5.795034170E-1,-2.876211889E-2,6.391405563E-1
2.380738613E0,-3.191796243E-1,6.082655191E-1,-2.769685537E-2,6.874806835E-1
2.383247154E0,-3.010701239E-1,5.400886536E-1,-1.384842768E-2,6.184907050E-1
2.385755696E0,-2.296974659E-1,3.856254518E-1,7.456845604E-3,4.489137105E-1
2.388264238E0,-1.114532053E-1,1.235705838E-1,2.769685537E-2,1.686968344E-1
2.390772779E0,4.301001877E-2,-2.205095738E-1,3.621896356E-2,2.275656986E-1
2.393281321E0,2.027995586E-1,-5.486107469E-1,3.621896356E-2,5.860146977E-1
2.395789863E0,2.922817171E-1,-7.030739784E-1,2.343579940E-2,7.617682443E-1
2.398298404E0,2.518016994E-1,-6.466150284E-1,5.326318089E-3,6.939333256E-1
2.400806946E0,1.005342528E-1,-4.367581010E-1,-8.522109129E-3,4.482604166E-1
2.403315488E0,-8.588688076E-2,-1.555284858E-1,-1.065263618E-2,1.779863614E-1
2.405824029E0,-2.307627350E-1,9.054741263E-2,-6.391582079E-3,2.479740432E-1
2.408332571E0,-2.957438231E-1,2.258358896E-1,1.065263641E-3,3.721120701E-1
2.410841113E0,-2.701774836E-1,2.130527347E-1,7.456845604E-3,3.441554081E-1
2.413349654E0,-1.593900770E-1,6.711161137E-2,1.491369121E-2,1.735845132E-1
2.415858196E0,-9.187898599E-3,-1.310274303E-1,1.704421826E-2,1.324504071E-1
2.418366738E0,1.154479459E-1,-2.769685388E-1,1.065263618E-2,3.002553552E-1
2.420875279E0,1.644500792E-1,-3.004043400E-1,-4.261054564E-3,3.424978141E-1
2.423383821E0,1.399490088E-1,-2.034653574E-1,-1.704421826E-2,2.475366278E-1
2.425892415E0,6.644582003E-2,-3.834949061E-2,-1.917474531E-2,7.907845021E-2
2.428401008E0,-1.238369010E-2,1.342232227E-1,-1.171789970E-2,1.353016573E-1
2.430909602E0,-5.925529078E-2,2.588590682E-1,4.261054564E-3,2.655887107E-1
2.433418196E0,-5.819002539E-2,3.025348783E-1,1.384842768E-2,3.083913270E-1
2.435926790E0,-1.238369010E-2,2.631201148E-1,1.704421826E-2,2.639622245E-1
2.438435383E0,5.792371184E-2,1.757684946E-1,1.171789970E-2,1.854373998E-1
2.440943977E0,1.175784767E-1,8.841688186E-2,-2.130527282E-3,1.471284552E-1
2.443452571E0,1.431448013E-1,3.728422895E-2,-1.384842768E-2,1.485675833E-1
2.445961165E0,1.303616315E-1,3.515370190E-2,-1.704421826E-2,1.360898347E-1
2.448469758E0,9.307741374E-2,6.817687303E-2,-1.065263618E-2,1.158661712E-1
2.450978352E0,4.940159991E-2,1.086568907E-1,-1.065263641E-3,1.193648724E-1
2.453486946E0,1.637842879E-2,1.352884769E-1,4.261054564E-3,1.363428821E-1
2.455995540E0,-6.657897611E-4,1.257011145E-1,4.261054564E-3,1.257750773E-1
2.458504133E0,-1.731053460E-3,9.054741263E-2,0.000000000E0,9.056395796E-2
2.461012727E0,2.530001104E-3,4.154528305E-2,-3.195791040E-3,4.174475452E-2
2.463521321E0,3.994738800E-4,-0.000000000E0,-3.195791040E-3,3.220661384E-3
2.466029915E0,-1.451421715E-2,-2.769685537E-2,-2.130527282E-3,3.134194383E-2
2.468538508E0,-3.795001656E-2,-4.687159881E-2,-1.065263641E-3,6.031820056E-2
2.471047102E0,-5.819002539E-2,-6.391581893E-2,1.065263641E-3,8.644330946E-2
2.473555696E0,-6.671213359E-2,-8.735162020E-2,3.195791040E-3,1.099592079E-1
2.476064290E0,-6.245107949E-2,-1.214400530E-1,4.261054564E-3,1.366234987E-1
2.478572883E0,-4.434159771E-2,-1.587242782E-1,5.326318089E-3,1.648876692E-1
2.481081477E0,-2.303632535E-2,-1.885516644E-1,4.261054564E-3,1.900014711E-1
2.483590071E0,-1.131842658E-2,-1.906821877E-1,1.065263641E-3,1.910207797E-1
2.486098665E0,-1.557948068E-2,-1.608548164E-1,-2.130527282E-3,1.616215683E-1
2.488607258E0,-3.155843541E-2,-1.043958366E-1,-2.130527282E-3,1.090823757E-1
2.491115852E0,-5.179844424E-2,-4.154528305E-2,-3.195791040E-3,6.647783427E-2
2.493624446E0,-6.245107949E-2,1.065263618E-2,-1.065263641E-3,6.336206099E-2
2.496133040E0,-5.819002539E-2,3.728422895E-2,2.130527282E-3,6.914283715E-2
2.498641633E0,-3.475422785E-2,3.728422895E-2,2.130527282E-3,5.101479421E-2
2.501150227E0,-1.731053460E-3,1.917474531E-2,2.130527282E-3,1.937024910E-2
2.503658821E0,3.235738352E-2,-0.000000000E0,1.065263641E-3,3.237491397E-2
2.506167415E0,5.259739235E-2,-3.195791040E-3,-2.130527282E-3,5.273744314E-2
2.508676008E0,5.366265774E-2,1.491369121E-2,-5.326318089E-3,5.595059147E-2
2.511184602E0,4.194475710E-2,4.900212586E-2,-5.326318089E-3,6.472202602E-2
2.513693196E0,2.383527346E-2,8.309056610E-2,-1.065263641E-3,8.644823435E-2
2.516201790E0,1.318263728E-2,1.043958366E-1,2.130527282E-3,1.052464335E-1
2.518710383E0,1.424790081E-2,1.065263674E-1,2.130527282E-3,1.074960872E-1
2.521218977E0,2.490053698E-2,8.948214352E-2,3.195791040E-3,9.293709610E-2
2.523727571E0,3.874896467E-2,6.498108059E-2,1.065263641E-3,7.566477307E-2
2.526236165E0,4.620581120E-2,4.474107176E-2,-3.195791040E-3,6.439684442E-2
2.528744758E0,4.194475710E-2,3.621896356E-2,-4.261054564E-3,5.558176460E-2
2.531253352E0,2.809632942E-2,3.834949061E-2,-2.130527282E-3,4.758808994E-2
2.533761946E0,1.105211023E-2,4.367581010E-2,0.000000000E0,4.505247527E-2
2.536270540E0,-3.861580743E-3,4.261054471E-2,1.065263641E-3,4.279842419E-2
2.538779133E0,-1.025316212E-2,2.982738242E-2,2.130527282E-3,3.161232705E-2
2.541287727E0,-9.187898599E-3,5.326318089E-3,1.065263641E-3,1.067342174E-2
2.543796321E0,-5.992108025E-3,-2.450106293E-2,0.000000000E0,2.522315292E-2
2.546304915E0,-2.796316985E-3,-5.006739125E-2,0.000000000E0,5.014541908E-2
2.548813456E0,-4.926844500E-3,-6.285055727E-2,0.000000000E0,6.304336877E-2
2.551321998E0,-1.451421715E-2,-6.391581893E-2,-1.065263641E-3,6.555172916E-2
2.553830540E0,-2.623211779E-2,-5.858949944E-2,1.065263641E-3,6.420271206E-2
2.556339081E0,-3.581948951E-2,-5.113265663E-2,1.065263641E-3,6.243972445E-2
2.558847623E0,-3.795001656E-2,-4.687159881E-2,2.130527282E-3,6.034641396E-2
2.561356165E0,-3.155843541E-2,-4.580633715E-2,0.000000000E0,5.562513253E-2
2.563864706E0,-2.090579830E-2,-4.900212586E-2,0.000000000E0,5.327532958E-2
2.566373248E0,-1.025316212E-2,-4.900212586E-2,-1.065263641E-3,5.007464886E-2
2.568881790E0,-2.796316985E-3,-4.261054471E-2,-1.065263641E-3,4.271548543E-2
2.571390331E0,1.464737463E-3,-2.663159184E-2,-1.065263641E-3,2.669310635E-2
2.573898873E0,1.464737463E-3,-6.391582079E-3,-1.065263641E-3,6.643234448E-3
2.576407415E0,-1.731053460E-3,1.384842768E-2,0.000000000E0,1.395619917E-2
2.578915956E0,3.994738800E-4,2.876211889E-2,1.065263641E-3,2.878461132E-2
2.581424498E0,4.660528619E-3,3.728422895E-2,0.000000000E0,3.757438297E-2
2.583933040E0,1.105211023E-2,4.048001766E-2,0.000000000E0,4.196166072E-2
2.586441581E0,1.850895584E-2,4.048001766E-2,0.000000000E0,4.451082201E-2
2.588950123E0,2.170474641E-2,3.941475600E-2,0.000000000E0,4.499576655E-2
2.591458665E0,2.063948289E-2,4.048001766E-2,1.065263641E-3,4.545057613E-2
2.593967206E0,1.744369231E-2,4.261054471E-2,1.065263641E-3,4.605513770E-2
2.596475748E0,1.424790081E-2,4.261054471E-2,1.065263641E-3,4.494214041E-2
2.598984290E0,1.105211023E-2,3.834949061E-2,0.000000000E0,3.991030657E-2
2.601492831E0,1.105211023E-2,2.769685537E-2,0.000000000E0,2.982054556E-2
2.604001373E0,9.986846708E-3,1.810948178E-2,0.000000000E0,2.068067788E-2
2.606509915E0,1.105211023E-2,6.391582079E-3,0.000000000E0,1.276720259E-2
2.609018456E0,8.921583183E-3,-2.130527282E-3,0.000000000E0,9.172447492E-3
2.611526998E0,4.660528619E-3,-5.326318089E-3,-1.065263641E-3,7.157162707E-3
2.614035540E0,-3.861580743E-3,-8.522109129E-3,0.000000000E0,9.356182439E-3
2.616544081E0,-1.025316212E-2,-9.587372653E-3,0.000000000E0,1.403727352E-2
2.619052623E0,-1.557948068E-2,-1.278316416E-2,1.065263641E-3,2.018079014E-2
2.621561165E0,-1.877527125E-2,-1.810948178E-2,1.065263641E-3,2.610744966E-2
2.624069706E0,-1.771000773E-2,-2.876211889E-2,1.065263641E-3,3.379406225E-2
2.626578248E0,-1.557948068E-2,-3.621896356E-2,1.065263641E-3,3.944196149E-2
2.629086790E0,-1.344895363E-2,-4.154528305E-2,1.065263641E-3,4.368088465E-2
2.631595331E0,-1.238369010E-2,-4.261054471E-2,1.065263641E-3,4.438636151E-2
2.634103873E0,-1.131842658E-2,-4.048001766E-2,1.065263641E-3,4.204608658E-2
2.636612415E0,-1.131842658E-2,-3.515370190E-2,0.000000000E0,3.693087513E-2
2.639120956E0,-1.131842658E-2,-2.663159184E-2,-1.065263641E-3,2.895657526E-2
2.641629498E0,-8.122635074E-3,-1.810948178E-2,-2.130527282E-3,1.996170527E-2
2.644138040E0,-3.861580743E-3,-9.587372653E-3,0.000000000E0,1.033583670E-2
2.646646581E0,1.464737463E-3,-2.130527282E-3,0.000000000E0,2.585459792E-3
2.649155123E0,5.725792143E-3,5.326318089E-3,1.065263641E-3,7.892347349E-3
2.651663665E0,6.791055668E-3,1.171789970E-2,0.000000000E0,1.354354498E-2
2.654172206E0,6.791055668E-3,2.024000883E-2,-1.065263641E-3,2.137548084E-2
2.656680748E0,5.725792143E-3,2.769685537E-2,1.065263641E-3,2.830256666E-2
2.659189290E0,4.660528619E-3,3.195790946E-2,0.000000000E0,3.229595183E-2
2.661697831E0,5.725792143E-3,3.089264594E-2,1.065263641E-3,3.143684233E-2
2.664206373E0,7.856319658E-3,2.769685537E-2,0.000000000E0,2.878953900E-2
2.666714915E0,1.105211023E-2,2.024000883E-2,1.065263641E-3,2.308553410E-2
2.669223456E0,1.318263728E-2,1.384842768E-2,0.000000000E0,1.911964631E-2
2.671732050E0,1.318263728E-2,8.522109129E-3,0.000000000E0,1.569739691E-2
2.674240644E0,1.105211023E-2,6.391582079E-3,-2.130527282E-3,1.294374786E-2
2.676749238E0,6.791055668E-3,7.456845604E-3,-1.065263641E-3,1.014188198E-2
2.679257831E0,3.994738800E-4,9.587372653E-3,0.000000000E0,9.595691417E-3
2.681766425E0,-1.731053460E-3,7.456845604E-3,-1.065263641E-3,7.728898956E-3
2.684275019E0,-6.657897611E-4,1.065263641E-3,0.000000000E0,1.256209629E-3
2.686783613E0,7.856319658E-3,-1.491369121E-2,1.065263641E-3,1.689007788E-2
2.689292206E0,2.063948289E-2,-4.474107176E-2,1.065263641E-3,4.928373507E-2
2.691800800E0,3.981423005E-2,-8.628635854E-2,-1.065263641E-3,9.503495868E-2
2.694309394E0,6.964161247E-2,-1.320926845E-1,0.000000000E0,1.493265934E-1
2.696817988E0,1.165132076E-1,-1.704421788E-1,4.261054564E-3,2.065042868E-1
2.699326581E0,1.591237634E-1,-1.789642870E-1,8.522109129E-3,2.396272407E-1
2.701835175E0,1.548627019E-1,-1.246358454E-1,8.522109129E-3,1.989702911E-1
2.704343769E0,7.603318989E-2,2.343579940E-2,-1.065263641E-3,7.957020451E-2
2.706852363E0,-5.605949834E-2,2.237053663E-1,-1.384842768E-2,2.310379562E-1
2.709360956E0,-1.785648167E-1,3.898864985E-1,-2.130527236E-2,4.293609089E-1
2.711869550E0,-2.456764281E-1,4.591286182E-1,-1.810948178E-2,5.210412160E-1
2.714378144E0,-2.435459048E-1,4.133222997E-1,-9.587372653E-3,4.798352310E-1
2.716886738E0,-1.743037701E-1,2.588590682E-1,7.456845604E-3,3.121624993E-1
2.719395331E0,-5.286370963E-2,1.704421826E-2,2.343579940E-2,6.028527072E-2
2.721903925E0,8.135951310E-2,-2.364885211E-1,2.769685537E-2,2.516213560E-1
2.724412519E0,1.751027107E-1,-4.026696682E-1,1.810948178E-2,4.394676033E-1
2.726921113E0,1.889511347E-1,-4.314317703E-1,-1.065263641E-3,4.709957946E-1
2.729429706E0,1.154479459E-1,-3.323622644E-1,-1.491369121E-2,3.521580912E-1
2.731938300E0,-1.131842658E-2,-1.576590240E-1,-1.597895473E-2,1.588703925E-1
2.734446894E0,-1.295626909E-1,1.917474531E-2,-4.261054564E-3,1.310431925E-1
2.736955488E0,-1.998700947E-1,1.352884769E-1,4.261054564E-3,2.413901061E-1
2.739464081E0,-2.051964104E-1,1.587242782E-1,9.587372653E-3,2.595975367E-1
2.741972675E0,-1.508679688E-1,8.841688186E-2,1.065263618E-2,1.751918025E-1
2.744481269E0,-5.499423668E-2,-4.687159881E-2,8.522109129E-3,7.275946115E-2
2.746989863E0,5.046686530E-2,-1.874863952E-1,4.261054564E-3,1.942066154E-1
2.749498456E0,1.218395308E-1,-2.588590682E-1,-1.065263641E-3,2.861014212E-1
2.752007050E0,1.314269006E-1,-2.258358896E-1,-8.522109129E-3,2.614335586E-1
2.754515644E0,8.135951310E-2,-1.086568907E-1,-1.171789970E-2,1.362460988E-1
2.757024238E0,6.791055668E-3,4.261054471E-2,-8.522109129E-3,4.398185196E-2
2.759532831E0,-5.712476373E-2,1.747032404E-1,-1.065263641E-3,1.838085842E-1
2.762041425E0,-8.162582666E-2,2.439453751E-1,6.391582079E-3,2.573188177E-1
2.764550019E0,-5.925529078E-2,2.322274745E-1,9.587372653E-3,2.398597655E-1
2.767058613E0,-3.861580743E-3,1.597895473E-1,1.065263618E-2,1.601907922E-1
2.769567206E0,6.218476593E-2,6.711161137E-2,4.261054564E-3,9.159186689E-2
2.772075800E0,1.079910994E-1,-3.195791040E-3,-5.326318089E-3,1.081695904E-1
2.774584394E0,1.175784767E-1,-2.663159184E-2,-1.171789970E-2,1.211249315E-1
2.777092988E0,9.414267540E-2,-5.326318089E-3,-1.171789970E-2,9.501853592E-2
2.779601581E0,5.153212696E-2,4.261054471E-2,-5.326318089E-3,6.707897058E-2
2.782110175E0,1.105211023E-2,8.735162020E-2,2.130527282E-3,8.807379768E-2
2.784618769E0,-1.344895363E-2,1.075916290E-1,5.326318089E-3,1.085596732E-1
2.787127363E0,-1.877527125E-2,9.587372839E-2,5.326318089E-3,9.783993188E-2
2.789635956E0,-9.187898599E-3,5.752423778E-2,1.065263641E-3,5.826311183E-2
2.792144550E0,2.530001104E-3,1.384842768E-2,0.000000000E0,1.407763669E-2
2.794653092E0,6.791055668E-3,-2.024000883E-2,-2.130527282E-3,2.145496542E-2
2.797161633E0,-1.731053460E-3,-3.834949061E-2,-1.065263641E-3,3.840331708E-2
2.799670175E0,-1.877527125E-2,-4.367581010E-2,2.130527282E-3,4.758809037E-2
2.802178717E0,-3.581948951E-2,-4.367581010E-2,2.130527282E-3,5.652566995E-2
2.804687258E0,-4.327633604E-2,-5.326318368E-2,3.195791040E-3,6.870240955E-2
2.807195800E0,-3.901528195E-2,-7.243792713E-2,4.261054564E-3,8.238690489E-2
2.809704342E0,-2.623211779E-2,-9.693899006E-2,4.261054564E-3,1.005159111E-1
2.812212883E0,-1.131842658E-2,-1.150484756E-1,2.130527282E-3,1.156235169E-1
2.814721425E0,-3.861580743E-3,-1.150484756E-1,1.065263641E-3,1.151181928E-1
2.817229967E0,-8.122635074E-3,-8.948214352E-2,-1.065263641E-3,8.985636314E-2
2.819738508E0,-2.090579830E-2,-5.113265663E-2,-2.130527282E-3,5.528236720E-2
2.822247050E0,-3.475422785E-2,-9.587372653E-3,0.000000000E0,3.605237950E-2
2.824755592E0,-4.008054361E-2,2.024000883E-2,1.065263641E-3,4.491372530E-2
2.827264133E0,-3.262370080E-2,3.195790946E-2,3.195791040E-3,4.578020218E-2
2.829772675E0,-1.238369010E-2,2.556632832E-2,2.130527282E-3,2.848740196E-2
2.832281217E0,1.211737376E-2,1.065263618E-2,1.065263641E-3,1.616923594E-2
2.834789758E0,3.022685647E-2,2.130527282E-3,-1.065263641E-3,3.032056703E-2
2.837298300E0,3.661843762E-2,4.261054564E-3,-2.130527282E-3,3.692703219E-2
2.839806842E0,3.235738352E-2,1.810948178E-2,-2.130527282E-3,3.714152319E-2
2.842315383E0,2.277000993E-2,4.048001766E-2,-2.130527282E-3,4.649348695E-2
2.844823925E0,1.211737376E-2,5.858949944E-2,0.000000000E0,5.982942580E-2
2.847332467E0,6.791055668E-3,6.604634225E-2,1.065263641E-3,6.640310647E-2
2.849841008E0,9.986846708E-3,6.178529188E-2,1.065263641E-3,6.259627933E-2
2.852349550E0,1.744369231E-2,4.793686420E-2,-1.065263641E-3,5.102313335E-2
2.854858092E0,2.490053698E-2,3.408843651E-2,-1.065263641E-3,4.222787033E-2
2.857366633E0,2.490053698E-2,2.556632832E-2,-1.065263641E-3,3.570446292E-2
2.859875175E0,1.850895584E-2,2.130527236E-2,-1.065263641E-3,2.824235937E-2
2.862383717E0,8.921583183E-3,2.024000883E-2,-1.065263641E-3,2.214469215E-2
2.864892258E0,-6.657897611E-4,1.917474531E-2,0.000000000E0,1.918630067E-2
2.867400800E0,-5.992108025E-3,1.384842768E-2,1.065263641E-3,1.512676748E-2
2.869909342E0,-7.057371549E-3,1.065263641E-3,1.065263641E-3,7.216374882E-3
2.872417883E0,-5.992108025E-3,-1.597895473E-2,1.065263641E-3,1.709874672E-2
2.874926425E0,-4.926844500E-3,-3.089264594E-2,0.000000000E0,3.128305244E-2
2.877434967E0,-5.992108025E-3,-3.834949061E-2,-1.065263641E-3,3.882941637E-2
2.879943508E0,-1.131842658E-2,-3.941475600E-2,-1.065263641E-3,4.102151335E-2
2.882452050E0,-1.771000773E-2,-3.408843651E-2,1.065263641E-3,3.842916424E-2
2.884960592E0,-2.410159074E-2,-2.982738242E-2,2.130527282E-3,3.840701192E-2
2.887469133E0,-2.623211779E-2,-2.663159184E-2,1.065263641E-3,3.739653024E-2
2.889977675E0,-2.090579830E-2,-2.876211889E-2,2.130527282E-3,3.562093531E-2
2.892486217E0,-1.344895363E-2,-3.408843651E-2,2.130527282E-3,3.670742437E-2
2.894994758E0,-5.992108025E-3,-3.515370190E-2,1.065263641E-3,3.567664366E-2
2.897503300E0,1.464737463E-3,-3.195790946E-2,1.065263641E-3,3.200918962E-2
2.900011842E0,4.660528619E-3,-2.237053588E-2,0.000000000E0,2.285085124E-2
2.902520383E0,2.530001104E-3,-6.391582079E-3,-1.065263641E-3,6.956149343E-3
2.905028925E0,3.994738800E-4,8.522109129E-3,1.065263641E-3,8.597715394E-3
2.907537467E0,-1.731053460E-3,2.024000883E-2,0.000000000E0,2.031389927E-2
2.910046008E0,3.994738800E-4,2.769685537E-2,0.000000000E0,2.769973604E-2
2.912554550E0,5.725792143E-3,2.876211889E-2,0.000000000E0,2.932650983E-2
2.915063092E0,9.986846708E-3,2.556632832E-2,0.000000000E0,2.744766385E-2
2.917571686E0,1.424790081E-2,2.237053588E-2,-1.065263641E-3,2.654389458E-2
2.920080279E0,1.424790081E-2,2.024000883E-2,-2.130527282E-3,2.484350582E-2
2.922588873E0,1.105211023E-2,2.237053588E-2,0.000000000E0,2.495175377E-2
2.925097467E0,5.725792143E-3,2.450106293E-2,0.000000000E0,2.516121580E-2
2.927606061E0,3.595264861E-3,2.130527236E-2,0.000000000E0,2.160649346E-2
2.930114654E0,2.530001104E-3,1.491369121E-2,1.065263641E-3,1.516423020E-2
2.932623248E0,4.660528619E-3,9.587372653E-3,1.065263641E-3,1.071321744E-2
2.935131842E0,5.725792143E-3,-0.000000000E0,1.065263641E-3,5.824043466E-3
2.937640436E0,5.725792143E-3,-6.391582079E-3,0.000000000E0,8.581201381E-3
2.940149029E0,3.595264861E-3,-8.522109129E-3,0.000000000E0,9.249447195E-3
2.942657623E0,-1.731053460E-3,-8.522109129E-3,0.000000000E0,8.696142253E-3
2.945166217E0,-5.992108025E-3,-6.391582079E-3,-1.065263641E-3,8.825670891E-3
2.947674811E0,-1.025316212E-2,-6.391582079E-3,0.000000000E0,1.208220406E-2
2.950183404E0,-1.238369010E-2,-7.456845604E-3,2.130527282E-3,1.461162118E-2
2.952691998E0,-1.344895363E-2,-1.171789970E-2,1.065263641E-3,1.786947995E-2
2.955200592E0,-1.131842658E-2,-1.917474531E-2,1.065263641E-3,2.229153257E-2
2.957709186E0,-8.122635074E-3,-2.343579940E-2,0.000000000E0,2.480350569E-2
2.960217779E0,-5.992108025E-3,-2.556632832E-2,-1.065263641E-3,2.628073988E-2
2.962726373E0,-5.992108025E-3,-2.343579940E-2,0.000000000E0,2.418970964E-2
2.965234967E0,-4.926844500E-3,-1.917474531E-2,1.065263641E-3,1.982623113E-2
2.967743561E0,-3.861580743E-3,-1.384842768E-2,1.065263641E-3,1.441615558E-2
2.970252154E0,-3.861580743E-3,-7.456845604E-3,0.000000000E0,8.397401514E-3
2.972760748E0,-2.796316985E-3,-2.130527282E-3,0.000000000E0,3.515470833E-3
2.975269342E0,1.464737463E-3,2.130527282E-3,1.065263641E-3,2.796317035E-3
2.977777936E0,3.595264861E-3,7.456845604E-3,0.000000000E0,8.278313583E-3
2.980286529E0,5.725792143E-3,1.278316416E-2,-1.065263641E-3,1.404737585E-2
2.982795123E0,5.725792143E-3,1.704421826E-2,-1.065263641E-3,1.801179775E-2
2.985303717E0,4.660528619E-3,2.024000883E-2,-1.065263641E-3,2.079695341E-2
2.987812311E0,3.595264861E-3,2.237053588E-2,-2.130527282E-3,2.275754713E-2
2.990320904E0,5.725792143E-3,2.343579940E-2,-1.065263641E-3,2.414862679E-2
2.992829498E0,6.791055668E-3,1.917474531E-2,-1.065263641E-3,2.036968535E-2
2.995338092E0,6.791055668E-3,1.491369121E-2,-1.065263641E-3,1.642167498E-2
2.997846686E0,7.856319658E-3,7.456845604E-3,-1.065263641E-3,1.088398326E-2
3.000355279E0,7.856319658E-3,3.195791040E-3,-1.065263641E-3,8.548077303E-3
3.002863873E0,5.725792143E-3,1.065263641E-3,-1.065263641E-3,5.920664567E-3
3.005372467E0,2.530001104E-3,-0.000000000E0,0.000000000E0,2.530001104E-3
3.007881061E0,-1.731053460E-3,3.195791040E-3,0.000000000E0,3.634504980E-3
3.010389654E0,-3.861580743E-3,3.195791040E-3,0.000000000E0,5.012473062E-3
3.012898248E0,-4.926844500E-3,2.130527282E-3,0.000000000E0,5.367768925E-3
3.015406842E0,-4.926844500E-3,-1.065263641E-3,1.065263641E-3,5.152025813E-3
3.017915436E0,-3.861580743E-3,-4.261054564E-3,0.000000000E0,5.750512310E-3
3.020424029E0,-2.796316985E-3,-9.587372653E-3,0.000000000E0,9.986846503E-3
3.022932623E0,-2.796316985E-3,-1.171789970E-2,-1.065263641E-3,1.209393851E-2
3.025441217E0,-2.796316985E-3,-1.278316416E-2,0.000000000E0,1.308543750E-2
3.027949811E0,-6.657897611E-4,-1.491369121E-2,1.065263641E-3,1.496650420E-2
3.030458404E0,4.660528619E-3,-2.237053588E-2,2.130527282E-3,2.294995750E-2
3.032966998E0,1.744369231E-2,-3.728422895E-2,2.130527282E-3,4.121814256E-2
3.035475592E0,3.235738352E-2,-6.072002649E-2,2.130527282E-3,6.883648039E-2
3.037984186E0,5.472791940E-2,-9.054741263E-2,1.065263641E-3,1.058069652E-1
3.040492727E0,8.988162130E-2,-1.203747913E-1,3.195791040E-3,1.502631336E-1
3.043001269E0,1.271658540E-1,-1.320926845E-1,4.261054564E-3,1.834060749E-1
3.045509811E0,1.420795321E-1,-1.033305749E-1,4.261054564E-3,1.757326314E-1
3.048018352E0,1.037300453E-1,-1.171789970E-2,0.000000000E0,1.043898054E-1
3.050526894E0,1.318263728E-2,1.406148076E-1,-8.522109129E-3,1.414882765E-1
3.053035436E0,-9.440898895E-2,2.961432934E-1,-1.491369121E-2,3.111853557E-1
3.055543977E0,-1.743037701E-1,3.898864985E-1,-1.491369121E-2,4.273355872E-1
3.058052519E0,-1.977395564E-1,3.866907060E-1,-7.456845604E-3,4.343802929E-1
3.060561061E0,-1.625858694E-1,2.854906619E-1,4.261054564E-3,3.285684701E-1
3.063069602E0,-7.523424178E-2,1.033305749E-1,1.597895473E-2,1.288127550E-1
3.065578144E0,3.448791057E-2,-1.118526831E-1,1.917474531E-2,1.186090619E-1
3.068086686E0,1.197090000E-1,-2.812296152E-1,1.278316416E-2,3.059146130E-1
3.070595227E0,1.463405937E-1,-3.472759426E-1,-4.261054564E-3,3.768743905E-1
3.073103769E0,1.015995219E-1,-3.067959249E-1,-1.491369121E-2,3.235253013E-1
3.075612311E0,6.791055668E-3,-1.864211410E-1,-1.384842768E-2,1.870581172E-1
3.078120852E0,-9.440898895E-2,-4.793686420E-2,-4.261054564E-3,1.059677155E-1
3.080629394E0,-1.604553312E-1,5.113265663E-2,5.326318089E-3,1.684898559E-1
3.083137936E0,-1.764342934E-1,8.096003532E-2,1.065263618E-2,1.944146750E-1
3.085646477E0,-1.444763839E-1,4.048001766E-2,9.587372653E-3,1.503461840E-1
3.088155019E0,-7.416898012E-2,-5.326318368E-2,5.326318089E-3,9.146788514E-2
3.090663561E0,9.986846708E-3,-1.619200706E-1,2.130527282E-3,1.622417503E-1
3.093172102E0,7.603318989E-2,-2.258358896E-1,-2.130527282E-3,2.383011417E-1
3.095680644E0,9.520793706E-2,-2.087916732E-1,-5.326318089E-3,2.295362362E-1
3.098189186E0,6.218476593E-2,-1.182442605E-1,-7.456845604E-3,1.338067816E-1
3.100697727E0,4.660528619E-3,7.456845604E-3,-6.391582079E-3,1.087094268E-2
3.103206269E0,-4.753739014E-2,1.225053221E-1,0.000000000E0,1.314053173E-1
3.105714811E0,-7.097318769E-2,1.906821877E-1,3.195791040E-3,2.034873538E-1
3.108223352E0,-5.712476373E-2,1.949432492E-1,7.456845604E-3,2.032774301E-1
3.110731894E0,-9.187898599E-3,1.395495385E-1,8.522109129E-3,1.401110899E-1
3.113240436E0,5.153212696E-2,6.072002649E-2,4.261054564E-3,7.975361003E-2
3.115748977E0,9.733846784E-2,-0.000000000E0,-3.195791040E-3,9.739091539E-2
3.118257519E0,1.122521535E-1,-2.237053588E-2,-9.587372653E-3,1.148603698E-1
3.120766061E0,9.414267540E-2,-0.000000000E0,-1.065263618E-2,9.474345354E-2
3.123274602E0,5.898897350E-2,4.793686420E-2,-7.456845604E-3,7.637569306E-2
3.125783144E0,2.170474641E-2,9.693899006E-2,-1.065263641E-3,9.934484685E-2
3.128291686E0,-1.731053460E-3,1.246358454E-1,4.261054564E-3,1.247206763E-1
3.130800227E0,-9.187898599E-3,1.193095297E-1,5.326318089E-3,1.197812632E-1
3.133308769E0,3.994738800E-4,8.628635854E-2,2.130527282E-3,8.631358175E-2
3.135817311E0,1.318263728E-2,4.367581010E-2,-1.065263641E-3,4.563434124E-2
3.138325852E0,1.850895584E-2,6.391582079E-3,-3.195791040E-3,1.984053548E-2
3.140834394E0,1.211737376E-2,-1.491369121E-2,-4.261054564E-3,1.968261970E-2
3.143342936E0,-3.861580743E-3,-2.343579940E-2,-1.065263641E-3,2.377568687E-2
3.145851477E0,-2.303632535E-2,-2.663159184E-2,1.065263641E-3,3.522852191E-2
3.148360019E0,-3.475422785E-2,-3.621896356E-2,1.065263641E-3,5.020761358E-2
3.150868561E0,-3.581948951E-2,-5.752423778E-2,3.195791040E-3,6.784015656E-2
3.153377102E0,-2.516685426E-2,-8.415582776E-2,4.261054564E-3,8.794163113E-2
3.155885644E0,-1.131842658E-2,-1.065263674E-1,1.065263641E-3,1.071312677E-1
3.158394186E0,-4.926844500E-3,-1.107874215E-1,0.000000000E0,1.108969186E-1
3.160902727E0,-1.131842658E-2,-9.374319762E-2,-2.130527282E-3,9.444804406E-2
3.163411321E0,-2.303632535E-2,-6.072002649E-2,-1.065263641E-3,6.495174124E-2
3.165919915E0,-3.581948951E-2,-2.237053588E-2,0.000000000E0,4.223122902E-2
3.168428508E0,-4.221107066E-2,4.261054564E-3,3.195791040E-3,4.254578889E-2
3.170937102E0,-3.688475490E-2,1.384842768E-2,3.195791040E-3,3.952818202E-2
3.173445696E0,-1.984053478E-2,9.587372653E-3,3.195791040E-3,2.226606420E-2
3.175954290E0,1.464737463E-3,-2.130527282E-3,1.065263641E-3,2.796317035E-3
3.178462883E0,2.063948289E-2,-1.278316416E-2,0.000000000E0,2.427751099E-2
3.180971477E0,2.703106403E-2,-1.065263618E-2,-2.130527282E-3,2.913239137E-2
3.183480071E0,2.490053698E-2,5.326318089E-3,-3.195791040E-3,2.566358289E-2
3.185988665E0,1.531316526E-2,2.556632832E-2,-1.065263641E-3,2.982054595E-2
3.188497258E0,5.725792143E-3,4.474107176E-2,0.000000000E0,4.510596632E-2
3.191005852E0,2.530001104E-3,5.326318368E-2,1.065263641E-3,5.333387693E-2
3.193514446E0,6.791055668E-3,5.113265663E-2,1.065263641E-3,5.159265256E-2
3.196023040E0,1.424790081E-2,4.261054471E-2,0.000000000E0,4.492951366E-2
3.198531633E0,2.063948289E-2,3.302317113E-2,0.000000000E0,3.894249716E-2
3.201040227E0,2.277000993E-2,2.450106293E-2,-1.065263641E-3,3.346505975E-2
3.203548821E0,1.957421936E-2,2.237053588E-2,-1.065263641E-3,2.974433939E-2
3.206057415E0,1.105211023E-2,2.237053588E-2,-2.130527282E-3,2.504254705E-2
3.208566008E0,2.530001104E-3,2.130527236E-2,-1.065263641E-3,2.148139480E-2
3.211074602E0,-2.796316985E-3,1.597895473E-2,1.065263641E-3,1.625672690E-2
3.213583196E0,-3.861580743E-3,4.261054564E-3,1.065263641E-3,5.848348353E-3
3.216091790E0,-2.796316985E-3,-1.065263618E-2,0.000000000E0,1.101353922E-2
3.218600383E0,-1.731053460E-3,-2.556632832E-2,0.000000000E0,2.562486468E-2
3.221108977E0,-3.861580743E-3,-3.302317113E-2,0.000000000E0,3.324818246E-2
3.223617571E0,-1.025316212E-2,-3.408843651E-2,-1.065263641E-3,3.561296989E-2
3.226126165E0,-1.877527125E-2,-3.089264594E-2,-1.065263641E-3,3.616629882E-2
3.228634758E0,-2.410159074E-2,-2.769685537E-2,1.065263641E-3,3.673060386E-2
3.231143352E0,-2.410159074E-2,-2.769685537E-2,2.130527282E-3,3.677691694E-2
3.233651946E0,-2.090579830E-2,-2.982738242E-2,2.130527282E-3,3.648649464E-2
3.236160540E0,-1.344895363E-2,-3.408843651E-2,0.000000000E0,3.664554349E-2
3.238669133E0,-5.992108025E-3,-3.621896356E-2,-1.065263641E-3,3.672674049E-2
3.241177727E0,-1.731053460E-3,-3.302317113E-2,-1.065263641E-3,3.308566403E-2
3.243686321E0,1.464737463E-3,-2.343579940E-2,0.000000000E0,2.348152784E-2
3.246194915E0,3.994738800E-4,-9.587372653E-3,0.000000000E0,9.595691417E-3
3.248703508E0,-6.657897611E-4,5.326318089E-3,0.000000000E0,5.367768660E-3
3.251212102E0,-1.731053460E-3,1.917474531E-2,0.000000000E0,1.925272458E-2
3.253720696E0,-6.657897611E-4,2.556632832E-2,0.000000000E0,2.557499598E-2
3.256229290E0,4.660528619E-3,2.769685537E-2,0.000000000E0,2.808623015E-2
3.258737883E0,8.921583183E-3,2.663159184E-2,-2.130527282E-3,2.816692168E-2
3.261246477E0,1.318263728E-2,2.556632832E-2,-1.065263641E-3,2.878461144E-2
3.263755071E0,1.424790081E-2,2.450106293E-2,-2.130527282E-3,2.842259504E-2
3.266263665E0,1.318263728E-2,2.450106293E-2,-1.065263641E-3,2.784275125E-2
3.268772258E0,9.986846708E-3,2.556632832E-2,1.065263641E-3,2.746832790E-2
3.271280852E0,7.856319658E-3,2.450106293E-2,1.065263641E-3,2.575186653E-2
3.273789446E0,5.725792143E-3,2.237053588E-2,0.000000000E0,2.309167753E-2
3.276298040E0,7.856319658E-3,1.597895473E-2,1.065263641E-3,1.783769995E-2
3.278806633E0,8.921583183E-3,8.522109129E-3,1.065263641E-3,1.238368996E-2
3.281315227E0,7.856319658E-3,2.130527282E-3,-1.065263641E-3,8.209487907E-3
3.283823821E0,5.725792143E-3,-0.000000000E0,0.000000000E0,5.725792143E-3
3.286332415E0,1.464737463E-3,-0.000000000E0,1.065263641E-3,1.811143964E-3
3.288840956E0,-3.861580743E-3,-1.065263641E-3,0.000000000E0,4.005819823E-3
3.291349498E0,-8.122635074E-3,-1.065263641E-3,0.000000000E0,8.192190621E-3
3.293858040E0,-1.025316212E-2,-2.130527282E-3,2.130527282E-3,1.068670326E-2
3.296366581E0,-1.131842658E-2,-8.522109129E-3,1.065263641E-3,1.420802276E-2
3.298875123E0,-9.187898599E-3,-1.597895473E-2,2.130527282E-3,1.855488134E-2
3.301383665E0,-8.122635074E-3,-2.237053588E-2,2.130527282E-3,2.389471119E-2
3.303892206E0,-4.926844500E-3,-2.556632832E-2,1.065263641E-3,2.605850585E-2
3.306400748E0,-2.796316985E-3,-2.663159184E-2,0.000000000E0,2.677799605E-2
3.308909290E0,-3.861580743E-3,-2.237053588E-2,1.065263641E-3,2.272636064E-2
3.311417831E0,-3.861580743E-3,-1.704421826E-2,2.130527282E-3,1.760557663E-2
3.313926373E0,-4.926844500E-3,-9.587372653E-3,1.065263641E-3,1.083172644E-2
3.316434915E0,-4.926844500E-3,-4.261054564E-3,0.000000000E0,6.513860816E-3
3.318943456E0,-2.796316985E-3,-1.065263641E-3,0.000000000E0,2.992352804E-3
3.321451998E0,3.994738800E-4,3.195791040E-3,-1.065263641E-3,3.392262722E-3
3.323960540E0,2.530001104E-3,6.391582079E-3,0.000000000E0,6.874098273E-3
3.326469081E0,3.595264861E-3,1.171789970E-2,0.000000000E0,1.225704299E-2
3.328977623E0,2.530001104E-3,1.491369121E-2,1.065263641E-3,1.516423020E-2
3.331486165E0,4.660528619E-3,1.597895473E-2,0.000000000E0,1.664474456E-2
3.333994706E0,3.595264861E-3,1.597895473E-2,1.065263641E-3,1.641303477E-2
3.336503248E0,3.595264861E-3,1.384842768E-2,1.065263641E-3,1.434711348E-2
3.339011790E0,5.725792143E-3,9.587372653E-3,0.000000000E0,1.116702333E-2
3.341520331E0,6.791055668E-3,4.261054564E-3,0.000000000E0,8.017170516E-3
3.344028873E0,6.791055668E-3,-0.000000000E0,1.065263641E-3,6.874098029E-3
3.346537415E0,5.725792143E-3,-1.065263641E-3,-1.065263641E-3,5.920664567E-3
3.349045956E0,3.595264861E-3,-0.000000000E0,0.000000000E0,3.595264861E-3
3.351554498E0,-6.657897611E-4,2.130527282E-3,0.000000000E0,2.232134070E-3
3.354063040E0,-6.657897611E-4,1.065263641E-3,1.065263641E-3,1.647072936E-3
3.356571581E0,3.994738800E-4,-5.326318089E-3,2.130527282E-3,5.750512174E-3
3.359080123E0,9.986846708E-3,-1.917474531E-2,3.195791040E-3,2.185454289E-2
3.361588665E0,2.383527346E-2,-4.474107176E-2,3.195791040E-3,5.079465369E-2
3.364097206E0,4.194475710E-2,-7.776424289E-2,1.065263641E-3,8.836161444E-2
3.366605748E0,7.177213579E-2,-1.139832065E-1,0.000000000E0,1.346974789E-1
3.369114290E0,1.090563685E-1,-1.406148076E-1,2.130527282E-3,1.779616666E-1
3.371622831E0,1.367532164E-1,-1.374190152E-1,3.195791040E-3,1.938959541E-1
3.374131373E0,1.271658540E-1,-8.096003532E-2,3.195791040E-3,1.507842658E-1
3.376639915E0,5.792371184E-2,4.261054471E-2,-2.130527282E-3,7.193993369E-2
3.379148456E0,-4.966791719E-2,2.045306265E-1,-1.171789970E-2,2.108008263E-1
3.381656998E0,-1.519332230E-1,3.398191035E-1,-1.597895473E-2,3.725802656E-1
3.384165540E0,-2.094574571E-1,3.930822909E-1,-1.171789970E-2,4.455596738E-1
3.386674081E0,-2.041311413E-1,3.451454341E-1,-3.195791040E-3,4.010051205E-1
3.389182623E0,-1.444763839E-1,2.034653574E-1,9.587372653E-3,2.497268406E-1
3.391691165E0,-4.221107066E-2,-6.391582079E-3,1.917474531E-2,4.680061608E-2
3.394199706E0,6.857634336E-2,-2.162485123E-1,2.024000883E-2,2.277625779E-1
3.396708248E0,1.431448013E-1,-3.526022732E-1,1.065263618E-2,3.806997188E-1
3.399216790E0,1.474058628E-1,-3.749727905E-1,-7.456845604E-3,4.029747964E-1
3.401725331E0,8.135951310E-2,-2.908169627E-1,-1.704421826E-2,3.024638516E-1
3.404233873E0,-2.303632535E-2,-1.395495385E-1,-1.171789970E-2,1.419227084E-1
3.406742415E0,-1.199753210E-1,8.522109129E-3,-1.065263641E-3,1.202823295E-1
3.409250956E0,-1.743037701E-1,1.012000442E-1,7.456845604E-3,2.016900041E-1
3.411759550E0,-1.743037701E-1,1.139832065E-1,9.587372653E-3,2.084847556E-1
3.414268144E0,-1.221058443E-1,5.113265663E-2,7.456845604E-3,1.325895559E-1
3.416776738E0,-3.795001656E-2,-5.858949944E-2,5.326318089E-3,7.000930557E-2
3.419285331E0,4.940159991E-2,-1.661811322E-1,0.000000000E0,1.733686441E-1
3.421793925E0,1.069258377E-1,-2.109221965E-1,-5.326318089E-3,2.365368416E-1
3.424302519E0,1.079910994E-1,-1.672463864E-1,-7.456845604E-3,1.992210728E-1
3.426811113E0,6.111950055E-2,-5.965476483E-2,-8.522109129E-3,8.583070930E-2
3.429319706E0,-2.796316985E-3,6.924213469E-2,-5.326318089E-3,6.950296590E-2
3.431828300E0,-5.179844424E-2,1.747032404E-1,1.065263641E-3,1.822235874E-1
3.434336894E0,-6.458161026E-2,2.215748429E-1,6.391582079E-3,2.308831907E-1
3.436845488E0,-3.368896246E-2,1.981390417E-1,8.522109129E-3,2.011632481E-1
3.439354081E0,2.170474641E-2,1.288969070E-1,7.456845604E-3,1.309240741E-1
3.441862675E0,7.709845901E-2,5.113265663E-2,2.130527282E-3,9.253788468E-2
3.444371269E0,1.079910994E-1,-0.000000000E0,-6.391582079E-3,1.081800807E-1
3.446879863E0,1.058605760E-1,-7.456845604E-3,-1.278316416E-2,1.068900154E-1
3.449388456E0,7.603318989E-2,2.024000883E-2,-1.065263618E-2,7.939888274E-2
3.451897050E0,3.448791057E-2,6.391581893E-2,-4.261054564E-3,7.275166301E-2
3.454405644E0,1.464737463E-3,9.693899006E-2,3.195791040E-3,9.700271300E-2
3.456914238E0,-1.664474420E-2,1.022653133E-1,6.391582079E-3,1.038079676E-1
3.459422831E0,-1.451421715E-2,7.776424289E-2,3.195791040E-3,7.917166824E-2
3.461931425E0,-3.861580743E-3,3.834949061E-2,-1.065263641E-3,3.855813822E-2
3.464440019E0,5.725792143E-3,-4.261054564E-3,-2.130527282E-3,7.448518522E-3
3.466948613E0,4.660528619E-3,-3.195790946E-2,-3.195791040E-3,3.245368369E-2
3.469457206E0,-7.057371549E-3,-4.154528305E-2,-2.130527282E-3,4.219426719E-2
3.471965800E0,-2.623211779E-2,-4.261054471E-2,1.065263641E-3,5.004914895E-2
3.474474394E0,-4.221107066E-2,-4.793686420E-2,2.130527282E-3,6.390818869E-2
3.476982988E0,-4.540686309E-2,-5.858949944E-2,3.195791040E-3,7.419383897E-2
3.479491581E0,-3.901528195E-2,-8.096003532E-2,3.195791040E-3,8.992737417E-2
3.482000175E0,-2.410159074E-2,-1.054610983E-1,2.130527282E-3,1.082010585E-1
3.484508769E0,-1.025316212E-2,-1.182442605E-1,2.130527282E-3,1.187070833E-1
3.487017363E0,-4.926844500E-3,-1.097221524E-1,0.000000000E0,1.098327115E-1
3.489525956E0,-1.238369010E-2,-7.989477366E-2,-2.130527282E-3,8.087688041E-2
3.492034550E0,-2.623211779E-2,-3.941475600E-2,-2.130527282E-3,4.739394624E-2
3.494543144E0,-3.795001656E-2,-0.000000000E0,-1.065263641E-3,3.796496468E-2
3.497051738E0,-4.008054361E-2,2.556632832E-2,2.130527282E-3,4.758808954E-2
3.499560331E0,-2.836264484E-2,2.982738242E-2,3.195791040E-3,4.128347665E-2
3.502068925E0,-7.057371549E-3,1.917474531E-2,3.195791040E-3,2.068067772E-2
3.504577519E0,1.744369231E-2,5.326318089E-3,2.130527282E-3,1.836276701E-2
3.507086113E0,3.342264518E-2,-2.130527282E-3,-1.065263641E-3,3.350741924E-2
3.509594706E0,3.661843762E-2,4.261054564E-3,-2.130527282E-3,3.692703219E-2
3.512103300E0,3.022685647E-2,2.237053588E-2,-2.130527282E-3,3.766487587E-2
3.514611894E0,1.637842879E-2,4.474107176E-2,-1.065263641E-3,4.765659680E-2
3.517120488E0,7.856319658E-3,6.178529188E-2,1.065263641E-3,6.229188421E-2
3.519629081E0,4.660528619E-3,6.711161137E-2,0.000000000E0,6.727324065E-2
3.522137675E0,8.921583183E-3,5.858949944E-2,1.065263641E-3,5.927443697E-2
3.524646269E0,1.637842879E-2,4.367581010E-2,0.000000000E0,4.664578563E-2
3.527154863E0,2.170474641E-2,2.876211889E-2,-1.065263641E-3,3.604844361E-2
3.529663456E0,2.170474641E-2,1.917474531E-2,-1.065263641E-3,2.898105693E-2
3.532172050E0,1.637842879E-2,1.597895473E-2,-1.065263641E-3,2.290665210E-2
3.534680592E0,6.791055668E-3,1.384842768E-2,0.000000000E0,1.542392254E-2
3.537189133E0,-1.731053460E-3,1.171789970E-2,0.000000000E0,1.184507153E-2
3.539697675E0,-5.992108025E-3,5.326318089E-3,1.065263641E-3,8.087633126E-3
3.542206217E0,-7.057371549E-3,-6.391582079E-3,3.195791040E-3,1.004350014E-2
3.544714758E0,-5.992108025E-3,-2.130527236E-2,0.000000000E0,2.213187721E-2
3.547223300E0,-4.926844500E-3,-3.408843651E-2,0.000000000E0,3.444263783E-2
3.549731842E0,-5.992108025E-3,-3.941475600E-2,-1.065263641E-3,3.988186475E-2
3.552240383E0,-1.131842658E-2,-3.728422895E-2,0.000000000E0,3.896434920E-2
3.554748925E0,-1.877527125E-2,-3.195790946E-2,1.065263641E-3,3.708036643E-2
3.557257467E0,-2.303632535E-2,-2.556632832E-2,1.065263641E-3,3.443028051E-2
3.559766008E0,-2.197106183E-2,-2.343579940E-2,0.000000000E0,3.212420040E-2
3.562274550E0,-1.664474420E-2,-2.663159184E-2,1.065263641E-3,3.142330314E-2
3.564783092E0,-8.122635074E-3,-2.982738242E-2,2.130527282E-3,3.098691803E-2
3.567291633E0,3.994738800E-4,-2.876211889E-2,1.065263641E-3,2.878461132E-2
3.569800175E0,5.725792143E-3,-2.450106293E-2,0.000000000E0,2.516121580E-2
3.572308717E0,5.725792143E-3,-1.384842768E-2,0.000000000E0,1.498544777E-2
3.574817258E0,3.595264861E-3,1.065263641E-3,0.000000000E0,3.749762132E-3
3.577325800E0,3.994738800E-4,1.597895473E-2,-1.065263641E-3,1.601940574E-2
3.579834342E0,1.464737463E-3,2.769685537E-2,0.000000000E0,2.773555936E-2
3.582342883E0,3.595264861E-3,3.302317113E-2,0.000000000E0,3.321830460E-2
3.584851425E0,8.921583183E-3,3.302317113E-2,-1.065263641E-3,3.422366527E-2
3.587359967E0,1.211737376E-2,2.876211889E-2,0.000000000E0,3.121041861E-2
3.589868508E0,1.424790081E-2,2.556632832E-2,0.000000000E0,2.926840995E-2
3.592377050E0,1.318263728E-2,2.343579940E-2,0.000000000E0,2.688900555E-2
3.594885592E0,9.986846708E-3,2.450106293E-2,-1.065263641E-3,2.647968992E-2
3.597394133E0,7.856319658E-3,2.343579940E-2,1.065263641E-3,2.474051816E-2
3.599902675E0,5.725792143E-3,2.024000883E-2,-1.065263641E-3,2.106127821E-2
3.602411217E0,5.725792143E-3,1.384842768E-2,1.065263641E-3,1.502326301E-2
3.604919758E0,5.725792143E-3,6.391582079E-3,1.065263641E-3,8.647069086E-3
3.607428300E0,4.660528619E-3,-0.000000000E0,1.065263641E-3,4.780723129E-3
3.609936842E0,3.595264861E-3,-6.391582079E-3,-2.130527282E-3,7.636582835E-3
3.612445383E0,1.464737463E-3,-9.587372653E-3,-2.130527282E-3,9.929869925E-3
3.614953925E0,-2.796316985E-3,-1.065263618E-2,-1.065263641E-3,1.106493709E-2
3.617462467E0,-8.122635074E-3,-9.587372653E-3,0.000000000E0,1.256562434E-2
3.619971008E0,-1.131842658E-2,-1.065263618E-2,0.000000000E0,1.554301894E-2
3.622479550E0,-1.344895363E-2,-1.278316416E-2,1.065263641E-3,1.858543586E-2
3.624988092E0,-1.344895363E-2,-1.810948178E-2,1.065263641E-3,2.258234865E-2
3.627496633E0,-1.131842658E-2,-2.237053588E-2,2.130527282E-3,2.516121623E-2
3.630005175E0,-9.187898599E-3,-2.769685537E-2,2.130527282E-3,2.925871536E-2
3.632513717E0,-7.057371549E-3,-2.876211889E-2,0.000000000E0,2.961529970E-2
3.635022258E0,-5.992108025E-3,-2.556632832E-2,0.000000000E0,2.625914131E-2
3.637530800E0,-5.992108025E-3,-2.130527236E-2,0.000000000E0,2.213187721E-2
3.640039342E0,-5.992108025E-3,-1.384842768E-2,1.065263641E-3,1.512676748E-2
3.642547883E0,-4.926844500E-3,-8.522109129E-3,0.000000000E0,9.843786910E-3
3.645056425E0,-2.796316985E-3,-2.130527282E-3,1.065263641E-3,3.673325715E-3
3.647564967E0,3.994738800E-4,2.130527282E-3,1.065263641E-3,2.415266550E-3
3.650073508E0,2.530001104E-3,6.391582079E-3,0.000000000E0,6.874098273E-3
3.652582050E0,4.660528619E-3,1.065263618E-2,-1.065263641E-3,1.167621391E-2
3.655090644E0,4.660528619E-3,1.597895473E-2,1.065263641E-3,1.667879816E-2
3.657599238E0,3.595264861E-3,1.810948178E-2,0.000000000E0,1.846291580E-2
3.660107831E0,3.595264861E-3,1.917474531E-2,0.000000000E0,1.950888995E-2
3.662616425E0,4.660528619E-3,1.810948178E-2,1.065263641E-3,1.872988639E-2
3.665125019E0,5.725792143E-3,1.278316416E-2,0.000000000E0,1.400692620E-2
3.667633613E0,6.791055668E-3,8.522109129E-3,0.000000000E0,1.089700790E-2
3.670142206E0,7.856319658E-3,4.261054564E-3,1.065263641E-3,9.000729482E-3
3.672650800E0,6.791055668E-3,1.065263641E-3,0.000000000E0,6.874098029E-3
3.675159394E0,2.530001104E-3,1.065263641E-3,0.000000000E0,2.745121529E-3
3.677667988E0,3.994738800E-4,2.130527282E-3,0.000000000E0,2.167654465E-3
3.680176581E0,-1.731053460E-3,3.195791040E-3,0.000000000E0,3.634504980E-3
3.682685175E0,-4.926844500E-3,2.130527282E-3,1.065263641E-3,5.472451905E-3
3.685193769E0,-4.926844500E-3,1.065263641E-3,1.065263641E-3,5.152025813E-3
3.687702363E0,-3.861580743E-3,-1.065263641E-3,1.065263641E-3,4.145042712E-3
3.690210956E0,-2.796316985E-3,-5.326318089E-3,1.065263641E-3,6.109323996E-3
3.692719550E0,-1.731053460E-3,-8.522109129E-3,0.000000000E0,8.696142253E-3
3.695228144E0,-6.657897611E-4,-1.171789970E-2,-1.065263641E-3,1.178504290E-2
3.697736738E0,-6.657897611E-4,-1.171789970E-2,1.065263641E-3,1.178504290E-2
3.700245331E0,3.994738800E-4,-1.171789970E-2,0.000000000E0,1.172470694E-2
3.702753925E0,4.660528619E-3,-2.024000883E-2,1.065263641E-3,2.079695341E-2
3.705262519E0,1.105211023E-2,-3.834949061E-2,2.130527282E-3,3.996713296E-2
3.707771113E0,2.809632942E-2,-6.178529188E-2,1.065263641E-3,6.788196230E-2
3.710279706E0,6.005423889E-2,-9.480846673E-2,-1.065263641E-3,1.122332026E-1
3.712788300E0,9.627319872E-2,-1.395495385E-1,1.065263641E-3,1.695397808E-1
3.715296894E0,1.378184855E-1,-1.661811322E-1,4.261054564E-3,2.159357780E-1
3.717805488E0,1.676458716E-1,-1.459411234E-1,4.261054564E-3,2.223108327E-1
3.720314081E0,1.516669095E-1,-6.391581893E-2,1.065263641E-3,1.645880254E-1
3.722822675E0,7.496792823E-2,8.948214352E-2,-3.195791040E-3,1.167795245E-1
3.725331269E0,-4.540686309E-2,2.790990770E-1,-1.065263618E-2,2.829691797E-1
3.727839863E0,-1.604553312E-1,4.314317703E-1,-1.491369121E-2,4.605450075E-1
3.730348456E0,-2.296974659E-1,4.900212884E-1,-1.278316416E-2,5.413364926E-1
3.732857050E0,-2.360890508E-1,4.420844018E-1,-8.522109129E-3,5.012477278E-1
3.735365644E0,-1.860216707E-1,3.057306707E-1,2.130527282E-3,3.578824445E-1
3.737874238E0,-9.547425061E-2,9.693899006E-2,1.597895473E-2,1.369957201E-1
3.740382831E0,2.596580051E-2,-1.608548164E-1,2.876211889E-2,1.654562004E-1
3.742891425E0,1.399490088E-1,-3.845601678E-1,2.663159184E-2,4.100993653E-1
3.745400019E0,1.910816729E-1,-4.932170510E-1,1.384842768E-2,5.291191209E-1
3.747908613E0,1.516669095E-1,-4.591286182E-1,-4.261054564E-3,4.835494764E-1
3.750417206E0,3.981423005E-2,-3.046653867E-1,-1.278316416E-2,3.075216741E-1
3.752925800E0,-9.334372729E-2,-1.033305749E-1,-1.065263618E-2,1.396557833E-1
3.755434394E0,-1.956090331E-1,6.072002649E-2,-1.065263641E-3,2.048193112E-1
3.757942988E0,-2.350237966E-1,1.374190152E-1,5.326318089E-3,2.723022959E-1
3.760451581E0,-2.083922029E-1,1.118526831E-1,8.522109129E-3,2.366663459E-1
3.762960175E0,-1.242363751E-1,2.130527282E-3,9.587372653E-3,1.246239694E-1
3.765468769E0,-1.238369010E-2,-1.448758543E-1,5.326318089E-3,1.455016790E-1
3.767977363E0,8.562056720E-2,-2.545980215E-1,0.000000000E0,2.686094453E-1
3.770485956E0,1.346226931E-1,-2.705769539E-1,-5.326318089E-3,3.022640024E-1
3.772994550E0,1.165132076E-1,-1.853558719E-1,-1.065263618E-2,2.191930780E-1
3.775503144E0,5.153212696E-2,-3.408843651E-2,-1.278316416E-2,6.309509410E-2
3.778011738E0,-2.197106183E-2,1.246358454E-1,-6.391582079E-3,1.267188772E-1
3.780520279E0,-6.990792602E-2,2.407495826E-1,1.065263641E-3,2.506962594E-1
3.783028821E0,-7.310371846E-2,2.801643312E-1,7.456845604E-3,2.896408305E-1
3.785537363E0,-3.049317189E-2,2.386190593E-1,1.065263618E-2,2.407952816E-1
3.788045904E0,3.874896467E-2,1.448758543E-1,7.456845604E-3,1.501535879E-1
3.790554446E0,1.079910994E-1,4.900212586E-2,1.065263641E-3,1.185935102E-1
3.793062988E0,1.431448013E-1,-5.326318089E-3,-8.522109129E-3,1.434971433E-1
3.795571529E0,1.378184855E-1,-5.326318089E-3,-1.278316416E-2,1.385125045E-1
3.798080071E0,9.733846784E-2,3.728422895E-2,-1.278316416E-2,1.050157147E-1
3.800588613E0,4.514054582E-2,9.800425172E-2,-4.261054564E-3,1.079845305E-1
3.803097154E0,2.530001104E-3,1.416800618E-1,2.130527282E-3,1.417186649E-1
3.805605696E0,-1.664474420E-2,1.470063776E-1,5.326318089E-3,1.480415220E-1
3.808114238E0,-1.238369010E-2,1.129179448E-1,4.261054564E-3,1.136748636E-1
3.810622779E0,2.530001104E-3,5.645897239E-2,1.065263641E-3,5.652566900E-2
3.813131321E0,1.424790081E-2,2.130527282E-3,-3.195791040E-3,1.475652074E-2
3.815639863E0,9.986846708E-3,-3.408843651E-2,-3.195791040E-3,3.566471213E-2
3.818148404E0,-9.187898599E-3,-5.006739125E-2,-1.065263641E-3,5.091459450E-2
3.820656946E0,-3.368896246E-2,-5.539371073E-2,0.000000000E0,6.483370559E-2
3.823165488E0,-5.286370963E-2,-6.285055727E-2,2.130527282E-3,8.215414470E-2
3.825674029E0,-5.712476373E-2,-8.202529699E-2,5.326318089E-3,1.000987395E-1
3.828182571E0,-4.540686309E-2,-1.118526831E-1,7.456845604E-3,1.209479660E-1
3.830691113E0,-2.623211779E-2,-1.384842694E-1,4.261054564E-3,1.410112529E-1
3.833199654E0,-1.131842658E-2,-1.502021700E-1,1.065263641E-3,1.506317810E-1
3.835708196E0,-1.025316212E-2,-1.363537461E-1,-2.130527282E-3,1.367552944E-1
3.838216738E0,-2.197106183E-2,-9.693899006E-2,-3.195791040E-3,9.944902429E-2
3.840725279E0,-4.008054361E-2,-4.474107176E-2,-2.130527282E-3,6.010617792E-2
3.843233821E0,-5.179844424E-2,-0.000000000E0,1.065263641E-3,5.180939695E-2
3.845742363E0,-4.966791719E-2,2.556632832E-2,3.195791040E-3,5.595312522E-2
3.848250904E0,-3.262370080E-2,2.876211889E-2,4.261054564E-3,4.370036525E-2
3.850759446E0,-4.926844500E-3,1.597895473E-2,3.195791040E-3,1.702392057E-2
3.853267988E0,2.170474641E-2,1.065263641E-3,0.000000000E0,2.173087213E-2
3.855776529E0,3.874896467E-2,-2.130527282E-3,-2.130527282E-3,3.886593053E-2
3.858285071E0,4.194475710E-2,9.587372653E-3,-3.195791040E-3,4.314502802E-2
3.860793613E0,3.342264518E-2,3.195790946E-2,-2.130527282E-3,4.629168753E-2
3.863302154E0,2.063948289E-2,5.965476483E-2,-1.065263641E-3,6.313330347E-2
3.865810696E0,9.986846708E-3,7.776424289E-2,0.000000000E0,7.840289905E-2
3.868319238E0,9.986846708E-3,8.202529699E-2,0.000000000E0,8.263102597E-2
3.870827779E0,1.531316526E-2,7.350318879E-2,-1.065263641E-3,7.508892448E-2
3.873336321E0,2.596580051E-2,5.539371073E-2,-2.130527282E-3,6.121458267E-2
3.875844863E0,3.129211813E-2,4.048001766E-2,-2.130527282E-3,5.120905812E-2
3.878353404E0,3.022685647E-2,3.195790946E-2,-2.130527282E-3,4.403986803E-2
3.880861946E0,2.063948289E-2,3.195790946E-2,-2.130527282E-3,3.810295760E-2
3.883370488E0,7.856319658E-3,3.302317113E-2,-1.065263641E-3,3.396154261E-2
3.885879029E0,-2.796316985E-3,2.982738242E-2,1.065263641E-3,2.997710655E-2
3.888387571E0,-8.122635074E-3,1.810948178E-2,1.065263641E-3,1.987625009E-2
3.890896113E0,-8.122635074E-3,-3.195791040E-3,1.065263641E-3,8.793467322E-3
3.893404654E0,-5.992108025E-3,-2.450106293E-2,1.065263641E-3,2.524563784E-2
3.895913196E0,-5.992108025E-3,-4.367581010E-2,0.000000000E0,4.408493786E-2
3.898421738E0,-1.025316212E-2,-5.326318368E-2,-1.065263641E-3,5.425153322E-2
3.900930331E0,-1.771000773E-2,-5.539371073E-2,-1.065263641E-3,5.816564578E-2
3.903438925E0,-2.516685426E-2,-5.113265663E-2,0.000000000E0,5.699051788E-2
3.905947519E0,-3.155843541E-2,-4.474107176E-2,1.065263641E-3,5.476160274E-2
3.908456113E0,-3.155843541E-2,-4.154528305E-2,1.065263641E-3,5.218314072E-2
3.910964706E0,-2.623211779E-2,-4.154528305E-2,2.130527282E-3,4.918001315E-2
3.913473300E0,-1.771000773E-2,-4.154528305E-2,0.000000000E0,4.516253887E-2
3.915981894E0,-9.187898599E-3,-4.048001766E-2,0.000000000E0,4.150962913E-2
3.918490488E0,-1.731053460E-3,-3.195790946E-2,1.065263641E-3,3.202248132E-2
3.920999081E0,-6.657897611E-4,-1.917474531E-2,-1.065263641E-3,1.921585075E-2
3.923507675E0,3.994738800E-4,-0.000000000E0,-1.065263641E-3,1.137702072E-3
3.926016269E0,1.464737463E-3,1.704421826E-2,0.000000000E0,1.710704042E-2
3.928524863E0,2.530001104E-3,2.982738242E-2,0.000000000E0,2.993448926E-2
3.931033456E0,5.725792143E-3,3.621896356E-2,-1.065263641E-3,3.668423100E-2
3.933542050E0,1.211737376E-2,3.728422895E-2,-1.065263641E-3,3.921835364E-2
3.936050644E0,1.637842879E-2,3.515370190E-2,-1.065263641E-3,3.879652657E-2
3.938559238E0,1.957421936E-2,3.408843651E-2,-2.130527282E-3,3.936636526E-2
3.941067831E0,1.957421936E-2,3.302317113E-2,-2.130527282E-3,3.844761425E-2
3.943576425E0,1.531316526E-2,3.408843651E-2,0.000000000E0,3.736996835E-2
3.946085019E0,1.211737376E-2,3.408843651E-2,0.000000000E0,3.617806311E-2
3.948593613E0,9.986846708E-3,3.089264594E-2,0.000000000E0,3.246679350E-2
3.951102206E0,8.921583183E-3,2.343579940E-2,0.000000000E0,2.507650973E-2
3.953610800E0,8.921583183E-3,1.491369121E-2,0.000000000E0,1.737851639E-2
3.956119394E0,8.921583183E-3,4.261054564E-3,-1.065263641E-3,9.944144967E-3
3.958627988E0,6.791055668E-3,-2.130527282E-3,0.000000000E0,7.117414108E-3
3.961136581E0,3.595264861E-3,-4.261054564E-3,0.000000000E0,5.575169542E-3
3.963645175E0,-2.796316985E-3,-5.326318089E-3,0.000000000E0,6.015733793E-3
3.966153769E0,-8.122635074E-3,-5.326318089E-3,1.065263641E-3,9.771471310E-3
3.968662363E0,-1.344895363E-2,-8.522109129E-3,1.065263641E-3,1.595730191E-2
3.971170956E0,-1.664474420E-2,-1.491369121E-2,1.065263641E-3,2.237410292E-2
3.973679550E0,-1.664474420E-2,-2.237053588E-2,0.000000000E0,2.788347871E-2
3.976188144E0,-1.451421715E-2,-2.982738242E-2,-1.065263641E-3,3.318840201E-2
3.978696738E0,-1.025316212E-2,-3.621896356E-2,-1.065263641E-3,3.765734247E-2
3.981205331E0,-8.122635074E-3,-3.728422895E-2,0.000000000E0,3.815875953E-2
3.983713925E0,-7.057371549E-3,-3.408843651E-2,0.000000000E0,3.481131996E-2
3.986222519E0,-5.992108025E-3,-2.769685537E-2,0.000000000E0,2.833762791E-2
3.988731113E0,-7.057371549E-3,-1.917474531E-2,1.065263641E-3,2.046001313E-2
3.991239706E0,-5.992108025E-3,-9.587372653E-3,1.065263641E-3,1.135596141E-2
3.993748300E0,-3.861580743E-3,-3.195791040E-3,1.065263641E-3,5.124419267E-3
3.996256894E0,-6.657897611E-4,2.130527282E-3,0.000000000E0,2.232134070E-3
3.998765488E0,2.530001104E-3,8.522109129E-3,-1.065263641E-3,8.953325427E-3
4.001274081E0,3.595264861E-3,1.278316416E-2,0.000000000E0,1.327912705E-2
4.003782675E0,5.725792143E-3,1.704421826E-2,-1.065263641E-3,1.801179775E-2
4.006291269E0,5.725792143E-3,2.237053588E-2,-1.065263641E-3,2.311623581E-2
4.008799863E0,5.725792143E-3,2.343579940E-2,1.065263641E-3,2.414862679E-2
4.011308456E0,5.725792143E-3,2.237053588E-2,0.000000000E0,2.309167753E-2
4.013817050E0,7.856319658E-3,1.917474531E-2,-1.065263641E-3,2.074915427E-2
4.016325644E0,9.986846708E-3,1.384842768E-2,-1.065263641E-3,1.710704075E-2
4.018834238E0,1.105211023E-2,7.456845604E-3,-2.130527282E-3,1.350158633E-2
4.021342831E0,9.986846708E-3,5.326318089E-3,-1.065263641E-3,1.136844572E-2
4.023851373E0,8.921583183E-3,5.326318089E-3,-1.065263641E-3,1.044505134E-2
4.026359915E0,4.660528619E-3,7.456845604E-3,0.000000000E0,8.793467653E-3
4.028868456E0,3.994738800E-4,8.522109129E-3,-1.065263641E-3,8.597715394E-3
4.031376998E0,-1.731053460E-3,9.587372653E-3,0.000000000E0,9.742395007E-3
