"Time (s)","Linear Acceleration x (m/s^2)","Linear Acceleration y (m/s^2)","Linear Acceleration z (m/s^2)","Absolute acceleration (m/s^2)"
3.126259000E-3,8.473395109E-1,-1.372035146E0,8.850487709E0,8.996199052E0
8.142092000E-3,2.621837258E-1,-1.053985834E0,9.633234978E0,9.694268543E0
1.315792500E-2,-1.908365488E-1,-7.222769260E-1,1.023351574E1,1.026074787E1
1.817375900E-2,-3.413430452E-1,-5.734851360E-1,1.043163300E1,1.045295974E1
2.318959200E-2,-3.059507012E-1,-5.700910687E-1,1.016122627E1,1.018180382E1
2.820547700E-2,-1.869773865E-1,-6.893017888E-1,9.255630493E0,9.283145659E0
3.322146700E-2,4.684720933E-2,-8.120777607E-1,7.864065170E0,7.906022132E0
3.823761300E-2,2.320996225E-1,-9.432917237E-1,6.269469261E0,6.344282018E0
4.325396700E-2,3.120020330E-1,-1.029607773E0,4.539201736E0,4.664953359E0
4.827058100E-2,2.832177877E-1,-9.460738897E-1,2.879223824E0,3.043878767E0
5.328745600E-2,-9.978249669E-2,-7.595859170E-1,1.279994965E0,1.491748780E0
5.830459200E-2,-8.659877777E-1,-6.132280827E-1,-3.924627304E-1,1.131375493E0
6.332198800E-2,-1.810497522E0,-5.146401525E-1,-2.296040535E0,2.968932115E0
6.833964400E-2,-2.481806993E0,-2.215763330E-1,-4.215537071E0,4.896857648E0
7.335750900E-2,-2.812726259E0,2.832126617E-1,-5.826089382E0,6.475720494E0
7.837558100E-2,-2.951886654E0,7.432038784E-1,-6.908400536E0,7.549303596E0
8.339381100E-2,-2.043575287E0,1.215411305E0,-6.970608711E0,7.364971853E0
8.841214400E-2,-2.365377903E0,8.993932009E-1,-7.706861496E0,8.111697410E0
9.343058100E-2,-2.141430855E0,7.137532234E-1,-8.862834930E0,9.145764745E0
9.844907100E-2,-1.787257671E0,5.342171192E-1,-1.027556133E1,1.044350701E1
1.034675610E-1,-1.554180622E0,4.959275723E-1,-1.189727783E1,1.200860697E1
1.084852170E-1,-1.378094912E0,5.725058317E-1,-1.368524837E1,1.376636959E1
1.135026130E-1,-1.095378160E0,7.708934546E-1,-1.533848572E1,1.539685923E1
1.185199560E-1,-6.822904348E-1,1.030293345E0,-1.680488014E1,1.685025285E1
1.235373000E-1,-1.467782259E-2,1.356435418E0,-1.821401024E1,1.826445459E1
1.285546440E-1,6.776039004E-1,1.715938210E0,-1.935554886E1,1.944327294E1
1.335719880E-1,1.289737582E0,2.045373201E0,-2.037304306E1,2.051603905E1
1.385893310E-1,1.655323505E0,2.233345985E0,-2.150061035E1,2.167957969E1
1.436066750E-1,1.660758495E0,2.355441093E0,-2.279029846E1,2.297180719E1
1.486240190E-1,1.285933137E0,2.282325745E0,-2.418410301E1,2.432557242E1
1.536413630E-1,6.548782587E-1,1.967828035E0,-2.516049576E1,2.524582658E1
1.586587060E-1,2.215613276E-1,1.557476640E0,-2.563384628E1,2.568207348E1
1.636760500E-1,1.704193950E-1,1.234736085E0,-2.559510994E1,2.562544183E1
1.686933940E-1,3.440475464E-1,8.621401787E-1,-2.505443001E1,2.507161976E1
1.737107380E-1,6.217031479E-1,2.350507975E-1,-2.420861435E1,2.421773673E1
1.787280810E-1,7.739434838E-1,-7.129333019E-1,-2.291952133E1,2.294366406E1
1.837454250E-1,6.753684878E-1,-1.957687855E0,-2.184804726E1,2.194597533E1
1.887627690E-1,1.916213632E-1,-3.618666172E0,-2.238806534E1,2.267943856E1
1.937801130E-1,-6.942902803E-1,-6.385968208E0,-2.106596756E1,2.202356961E1
1.987974560E-1,-2.464911938E0,-9.117558479E0,-4.413009644E0,1.042498526E1
2.038148000E-1,-2.013478041E0,-9.842716217E0,2.159534454E1,2.381789374E1
2.088321440E-1,1.630236387E0,-8.533653259E0,3.577138901E1,3.681131864E1
2.138494880E-1,1.260329604E0,-6.370970249E0,4.430710602E1,4.478054640E1
2.188668310E-1,-7.842422724E-1,-3.966449261E0,4.821879578E1,4.838801527E1
2.238841750E-1,-2.101307958E-1,-3.726789951E0,4.925181961E1,4.939306483E1
2.289015190E-1,-6.878365278E-1,-4.444594383E0,4.676275253E1,4.697853300E1
2.339188630E-1,-1.643858314E0,-5.242316246E0,4.169673157E1,4.205712274E1
2.389362060E-1,-2.980180740E0,-5.830883980E0,3.523707962E1,3.584037479E1
2.439535500E-1,-2.673804760E0,-5.751149178E0,2.872383118E1,2.941570034E1
2.489708940E-1,-7.251605988E-1,-4.918328762E0,2.458609390E1,2.508369648E1
2.539882380E-1,1.887416720E0,-3.547298431E0,2.283017540E1,2.318108230E1
2.590055810E-1,3.982368469E0,-2.185350895E0,2.167853928E1,2.214935851E1
2.640229250E-1,5.003798485E0,-1.629025698E0,2.061369896E1,2.127478105E1
2.690402690E-1,5.092248440E0,-1.713890791E0,1.976933670E1,2.048646112E1
2.740576130E-1,4.935175419E0,-2.060530901E0,1.883438873E1,1.957896685E1
2.790749560E-1,4.851350784E0,-2.231348991E0,1.787153435E1,1.865224551E1
2.840923000E-1,4.523630142E0,-2.223045826E0,1.654200935E1,1.729286662E1
2.891096440E-1,3.573779583E0,-2.378489256E0,1.380957699E1,1.446144973E1
2.941269880E-1,2.279289484E0,-2.563194990E0,9.720241547E0,1.030767796E1
2.991443310E-1,7.130116224E-1,-2.975710869E0,5.343158722E0,6.157319699E0
3.041616750E-1,-6.877808571E-1,-3.437016010E0,1.071428299E0,3.665253083E0
3.091790190E-1,-1.787707806E0,-3.492688656E0,-2.960920811E0,4.915467963E0
3.141963630E-1,-2.686222792E0,-3.063245773E0,-6.758937836E0,7.891926775E0
3.192137060E-1,-3.449352980E0,-2.233092785E0,-1.026083851E1,1.105303335E1
3.242310500E-1,-4.100730896E0,-1.182633638E0,-1.383063698E1,1.447415405E1
3.292483940E-1,-4.576910019E0,-2.493143082E-1,-1.749740219E1,1.808782315E1
3.342657380E-1,-5.017374992E0,6.409946680E-1,-1.992273712E1,2.055481404E1
3.392830810E-1,-5.540175438E0,6.047044992E-1,-2.209429359E1,2.278633408E1
3.443004250E-1,-6.490429401E0,5.504002571E-1,-2.515682983E1,2.598643303E1
3.493177690E-1,-5.081906319E0,1.651740789E0,-2.893935394E1,2.942856140E1
3.543351130E-1,-4.042918205E0,2.367207766E0,-2.712389374E1,2.752552400E1
3.593524560E-1,-3.705795765E0,1.940546989E0,-2.661719322E1,2.694389764E1
3.643698000E-1,-2.726460934E0,9.171030521E-1,-2.824957085E1,2.839564967E1
3.693871440E-1,-1.609764814E0,5.418977737E-1,-2.935033417E1,2.939944067E1
3.744044880E-1,-7.290946245E-1,-9.509750605E-1,-3.498155212E1,3.500207025E1
3.794218310E-1,3.010861576E-1,-1.565543771E0,-3.969883347E1,3.973083134E1
3.844391750E-1,1.805120468E0,-1.687032819E0,-4.257903290E1,4.265065746E1
3.894565190E-1,3.285358667E0,-2.409947872E0,-4.380409241E1,4.399318063E1
3.944738630E-1,4.032736301E0,-3.501035929E0,-4.280811691E1,4.313994771E1
3.994912060E-1,2.839379787E0,-4.605126381E0,-3.729171753E1,3.768211065E1
4.045085500E-1,4.651714265E-1,-5.517327785E0,-3.067562103E1,3.117131720E1
4.095258940E-1,-1.483994365E0,-6.160783768E0,-2.631458855E1,2.706686288E1
4.145432380E-1,-3.457726955E0,-6.905135632E0,-2.375485611E1,2.497859008E1
4.195605810E-1,-4.901393890E0,-8.069322586E0,-1.981682205E1,2.195094680E1
4.245779250E-1,-5.231704235E0,-6.643969536E0,-5.178042412E0,9.915905587E0
4.295952690E-1,-4.921795368E0,-5.716204166E0,2.063245392E1,2.196809538E1
4.346126130E-1,-2.698769331E0,-6.306757450E0,4.350664520E1,4.404414515E1
4.396299560E-1,-2.467764616E0,-3.493551016E0,5.378622437E1,5.395602554E1
4.446473000E-1,1.618386626E0,-1.965844035E0,5.529224396E1,5.535084426E1
4.496646440E-1,6.969489574E0,-1.920246243E0,5.370551300E1,5.418988150E1
4.546819880E-1,7.710800171E0,-2.049705505E0,4.827679062E1,4.893164870E1
4.596993310E-1,7.155808926E0,-3.134067059E0,4.271982193E1,4.342823003E1
4.647166750E-1,5.768366814E0,-5.306803226E0,3.868328094E1,3.946938612E1
4.697340190E-1,4.027838707E0,-6.860232353E0,3.429949951E1,3.520996932E1
4.747513630E-1,3.468497515E0,-6.135334969E0,2.958275223E1,3.041072244E1
4.797687060E-1,3.869115353E0,-3.787738085E0,2.539376640E1,2.596459870E1
4.847860500E-1,4.520595551E0,-1.477046728E0,2.254935455E1,2.304540826E1
4.898033940E-1,4.211818218E0,-7.070139647E-1,2.167932129E1,2.209597821E1
4.948207380E-1,3.143124819E0,-1.210906029E0,2.052428055E1,2.079883696E1
4.998380810E-1,1.986688375E0,-2.166361094E0,1.901314354E1,1.923901448E1
5.048554250E-1,1.508325458E0,-3.000183344E0,1.789746475E1,1.820976085E1
5.098727690E-1,1.734286308E0,-3.742647648E0,1.675618553E1,1.725644558E1
5.148901130E-1,2.088792801E0,-3.621809959E0,1.343271351E1,1.406834585E1
5.199074560E-1,1.566198230E0,-3.279336929E0,9.273732185E0,9.960378318E0
5.249248000E-1,3.214111328E-1,-3.021118164E0,5.131678581E0,5.963605045E0
5.299421440E-1,-9.155144095E-1,-2.861441851E0,1.116703033E0,3.205158618E0
5.349594880E-1,-1.785737276E0,-2.642725945E0,-2.670771122E0,4.160033224E0
5.399768310E-1,-2.338168144E0,-2.180234432E0,-6.001295090E0,6.799705523E0
5.449941750E-1,-2.587399006E0,-1.486644268E0,-8.841787338E0,9.331770900E0
5.500115190E-1,-2.487421751E0,-2.476572990E-2,-1.209200573E1,1.234522105E1
5.550288630E-1,-2.864847183E0,5.029401779E-1,-1.377165794E1,1.407547018E1
5.600462060E-1,-3.062186480E0,3.646637201E-1,-1.616382980E1,1.645537479E1
5.650635500E-1,-2.899511337E0,6.444391012E-1,-1.979434204E1,2.001595475E1
5.700808940E-1,-3.229684591E0,7.282037735E-1,-2.296019173E1,2.319766254E1
5.750982380E-1,-4.077311039E0,7.623927593E-1,-2.566317749E1,2.599623794E1
5.801155810E-1,-5.076162338E0,1.123093367E0,-2.868473434E1,2.915206249E1
5.851329250E-1,-6.067726612E0,1.862199306E0,-3.246602631E1,3.308062812E1
5.901502690E-1,-6.995190620E0,2.468984842E0,-3.696974945E1,3.770664335E1
5.951676130E-1,-7.375800610E0,2.710632563E0,-4.031739044E1,4.107605063E1
6.001849560E-1,-7.575584888E0,2.532023191E0,-4.107680130E1,4.184619735E1
6.052023000E-1,-7.763560295E0,2.242069721E0,-4.057587433E1,4.137271229E1
6.102196440E-1,-7.888333797E0,1.941859484E0,-3.936552429E1,4.019503864E1
6.152369880E-1,-8.308966637E0,1.511965275E0,-3.740295792E1,3.834457232E1
6.202543310E-1,-8.864067078E0,9.538019896E-1,-3.528152084E1,3.639048140E1
6.252716750E-1,-9.250816345E0,3.088327646E-1,-3.307724380E1,3.434788259E1
6.302890190E-1,-9.225678444E0,-4.240342379E-1,-3.081789017E1,3.217196454E1
6.353063630E-1,-8.809333801E0,-1.370638490E0,-2.818647385E1,2.956281989E1
6.403237060E-1,-8.013179779E0,-2.676031113E0,-2.586098099E1,2.720592822E1
6.453410500E-1,-7.137816429E0,-4.194784641E0,-2.436547279E1,2.573365318E1
6.503583940E-1,-5.520722866E0,-6.104930401E0,-1.586956596E1,1.787712729E1
6.553757380E-1,8.615863323E-1,-8.285883904E0,1.934724426E1,2.106452144E1
6.603930810E-1,4.857858181E0,-7.406466961E0,3.823529816E1,3.924783515E1
6.654104250E-1,1.030423927E1,-7.431101799E0,4.777843475E1,4.943862304E1
6.704277690E-1,1.403525829E1,-8.374513626E0,5.541347504E1,5.777347289E1
6.754451130E-1,1.278429127E1,-7.775090694E0,5.640592957E1,5.835682504E1
6.804624560E-1,8.194064140E0,-6.888350010E0,4.900994873E1,5.016539771E1
6.854798000E-1,6.605249405E0,-6.885070324E0,4.403725433E1,4.505899780E1
6.904971440E-1,4.720770836E0,-7.758252144E0,4.341062164E1,4.435040276E1
6.955144880E-1,2.955260515E0,-8.816332817E0,4.332995224E1,4.431643093E1
7.005318310E-1,2.562484503E0,-8.391236305E0,4.002411270E1,4.097448927E1
7.055491750E-1,3.811002731E0,-5.978614330E0,3.498949814E1,3.570059595E1
7.105665190E-1,4.517286301E0,-3.251941919E0,2.786122894E1,2.841177714E1
7.155838630E-1,3.845541239E0,-1.826742768E0,2.331546021E1,2.370096751E1
7.206012060E-1,2.653708935E0,-1.632861614E0,2.234446907E1,2.256066724E1
7.256185500E-1,1.781310201E0,-1.877862453E0,2.252001572E1,2.266827169E1
7.306358940E-1,1.560923338E0,-2.037374020E0,2.187635422E1,2.202639890E1
7.356532380E-1,1.826508284E0,-2.215299606E0,2.021018219E1,2.041311218E1
7.406705810E-1,1.014518380E0,-2.864968538E0,1.711265945E1,1.738046046E1
7.456879250E-1,-1.326549649E-1,-3.734412193E0,1.134768200E1,1.194710503E1
7.507052690E-1,-9.147282839E-1,-4.693020821E0,5.199906349E0,7.064007241E0
7.557226130E-1,-1.717020273E0,-5.040427208E0,-6.377792358E-1,5.362912214E0
7.607399560E-1,-2.620233536E0,-4.944450855E0,-5.717849255E0,8.000438622E0
7.657573000E-1,-3.001360178E0,-4.523674965E0,-9.707941055E0,1.112276574E1
7.707746440E-1,-2.943511486E0,-4.095887184E0,-1.332308102E1,1.424587798E1
7.757919880E-1,-2.869933605E0,-3.591609478E0,-1.715313721E1,1.775855550E1
7.808093310E-1,-2.717847109E0,-3.042287588E0,-2.053926468E1,2.094047755E1
7.858266750E-1,-2.469174385E0,-2.317711830E0,-2.364123154E1,2.388255512E1
7.908440190E-1,-2.270884275E0,-1.751901507E0,-2.623127365E1,2.638760678E1
7.958613630E-1,-2.072517633E0,-1.487891436E0,-2.825383759E1,2.836879427E1
8.008787060E-1,-2.090353012E0,-1.138790965E0,-2.998782730E1,3.008215762E1
8.058960500E-1,-2.277058363E0,-6.679928303E-1,-3.148667908E1,3.157597455E1
8.109134460E-1,-2.528414965E0,-1.010565758E-1,-3.328185272E1,3.337790909E1
8.159308420E-1,-2.961992979E0,1.930229664E-1,-3.546895599E1,3.559294171E1
8.209482380E-1,-3.577309608E0,1.478028297E-1,-3.786609268E1,3.803498343E1
8.259656340E-1,-4.087707520E0,4.656529427E-2,-4.021502304E1,4.042226613E1
8.309830290E-1,-4.286624908E0,1.073503494E-2,-4.229171753E1,4.250840670E1
8.360004250E-1,-4.304848671E0,-1.540656090E-1,-4.348512650E1,4.369795973E1
8.410178210E-1,-4.367274284E0,-5.998773575E-1,-4.290718842E1,4.313304714E1
8.460352170E-1,-4.847782612E0,-1.366441727E0,-3.996140289E1,4.027756051E1
8.510526130E-1,-5.500127792E0,-2.314992905E0,-3.517920685E1,3.568174873E1
8.560700090E-1,-5.763004303E0,-3.189386368E0,-2.947813988E1,3.020505148E1
8.610874040E-1,-5.511809349E0,-3.959007740E0,-2.383203125E1,2.477941682E1
8.661048000E-1,-6.047293663E0,-5.833662510E0,-2.078041458E1,2.241488365E1
8.711221960E-1,-5.560199261E0,-7.516509056E0,-1.103244019E1,1.446127452E1
8.761395920E-1,-1.897024512E-1,-7.511539459E0,1.004608536E1,1.254523986E1
8.811569880E-1,4.763695717E0,-7.889428616E0,2.693889809E1,2.847174232E1
8.861743840E-1,6.900672436E0,-5.955236912E0,3.292890549E1,3.416719104E1
8.911917790E-1,5.424489975E-1,-4.271940231E0,3.284952545E1,3.313057571E1
8.962091750E-1,-3.950320482E-1,-4.982298851E0,3.836036682E1,3.868458472E1
9.012265710E-1,-8.318366408E-1,-6.820885658E0,4.302891541E1,4.357412069E1
9.062439670E-1,-7.128894925E-1,-7.079281807E0,4.785036087E1,4.837645582E1
9.112613630E-1,2.133200407E0,-7.002213001E0,5.497869492E1,5.546384791E1
9.162787590E-1,4.900132179E0,-7.600296021E0,5.930883789E1,5.999428345E1
9.212961540E-1,6.894663811E0,-8.632968903E0,5.631072235E1,5.738433578E1
9.263135500E-1,6.566380501E0,-9.189183235E0,4.762136841E1,4.894234537E1
9.313309460E-1,6.151690960E0,-8.275330544E0,4.066010666E1,4.194721291E1
9.363483420E-1,6.368455887E0,-6.193957329E0,3.638216400E1,3.745109071E1
9.413657380E-1,6.370703220E0,-4.408133030E0,3.307350159E1,3.396872096E1
9.463831340E-1,5.786091805E0,-3.505693197E0,3.019885254E1,3.094736560E1
9.514005290E-1,4.395689964E0,-3.321898699E0,2.652555466E1,2.709173584E1
9.564179250E-1,2.981215477E0,-4.139022827E0,2.192762184E1,2.251310186E1
9.614353210E-1,1.719371796E0,-5.761900425E0,1.584891319E1,1.695121781E1
9.664526650E-1,5.314475894E-1,-7.251738548E0,9.388241768E0,1.187473082E1
9.714700090E-1,-4.523204267E-1,-8.173197746E0,3.274024963E0,8.816178006E0
9.764873520E-1,-1.258954406E0,-8.318014145E0,-2.622933388E0,8.812156664E0
9.815046960E-1,-2.098387957E0,-7.775992870E0,-7.935068130E0,1.130639657E1
9.865220400E-1,-2.815292835E0,-6.834678650E0,-1.276451778E1,1.475030916E1
9.915393840E-1,-3.046788692E0,-5.706201553E0,-1.725659752E1,1.842915667E1
9.965567270E-1,-2.713667393E0,-4.392437935E0,-2.164749527E1,2.225469733E1
1.001574071E0,-1.978899002E0,-3.440217495E0,-2.560912704E1,2.591483216E1
1.006591415E0,-1.287623405E0,-2.759371758E0,-2.918729973E1,2.934570790E1
1.011608759E0,-1.160793304E0,-2.513075829E0,-3.259564590E1,3.271298096E1
1.016626102E0,-7.390293479E-1,-1.511105776E0,-3.640167618E1,3.644052186E1
1.021643446E0,-6.397429109E-1,-2.820003033E-1,-3.980438614E1,3.981052563E1
1.026660790E0,-9.365980625E-1,9.484910965E-2,-4.233312607E1,4.234359190E1
1.031678134E0,-1.685661554E0,-5.566380024E-1,-4.429158401E1,4.432714423E1
1.036695477E0,-1.862685204E0,-7.914590836E-1,-4.620727539E1,4.625157622E1
1.041712821E0,-1.979074240E0,-5.675127506E-1,-4.756893921E1,4.761347271E1
1.046730165E0,-2.434695244E0,-3.781180382E-1,-4.810001755E1,4.816308132E1
1.051747509E0,-2.958770752E0,-6.163315773E-1,-4.731317902E1,4.740960976E1
1.056764852E0,-3.315798759E0,-1.393359780E0,-4.526603317E1,4.540869666E1
1.061782196E0,-3.235554695E0,-2.873642206E0,-4.220653915E1,4.242780434E1
1.066799540E0,-3.711190939E0,-4.347808838E0,-3.791772461E1,3.834618911E1
1.071816884E0,-4.666683197E0,-5.520404339E0,-3.229253387E1,3.309169896E1
1.076834227E0,-5.943367958E0,-6.529262543E0,-2.627681732E1,2.772049820E1
1.081851571E0,-7.851150513E0,-8.003289223E0,-1.907838440E1,2.212866815E1
1.086868915E0,-6.175816536E0,-8.089182854E0,-1.484940529E0,1.028497144E1
1.091886259E0,-6.054567099E-1,-7.643328667E0,2.421105003E1,2.539610196E1
1.096903602E0,3.073985100E0,-8.033267975E0,3.892884064E1,3.986774902E1
1.101920946E0,-2.233197927E0,-5.844472885E0,3.923900986E1,3.973468171E1
1.106938290E0,-1.042707920E0,-5.514312267E0,4.434068298E1,4.469441852E1
1.111955634E0,2.979541063E0,-6.659381390E0,5.341088867E1,5.390684608E1
1.116972977E0,2.355594158E0,-6.927280903E0,5.783496857E1,5.829596584E1
1.121990321E0,3.797253609E0,-6.178300381E0,6.124047089E1,6.166835335E1
1.127007665E0,5.724504948E0,-6.415916443E0,6.341003418E1,6.399036158E1
1.132025009E0,6.211639881E0,-8.025978088E0,5.961719513E1,6.047487701E1
1.137042352E0,6.164600849E0,-8.847716331E0,5.150331879E1,5.262011245E1
1.142059696E0,6.553547382E0,-7.228503227E0,4.410015488E1,4.516662377E1
1.147077040E0,7.109733582E0,-4.771097660E0,3.898602676E1,3.991518467E1
1.152094384E0,7.468005657E0,-2.995707035E0,3.550897217E1,3.640923610E1
1.157111727E0,6.594738483E0,-2.722342730E0,3.266403961E1,3.343413240E1
1.162129071E0,5.275803566E0,-3.608345747E0,2.835738564E1,2.906880772E1
1.167146415E0,3.354089499E0,-4.694377422E0,2.211432648E1,2.285455165E1
1.172163759E0,5.577620864E-1,-6.040706158E0,1.523013783E1,1.639385030E1
1.177181102E0,-2.313658476E0,-7.218509674E0,8.390840530E0,1.130778945E1
1.182198446E0,-4.185536861E0,-7.646963120E0,2.080412865E0,8.962303357E0
1.187215790E0,-4.931260586E0,-7.110682964E0,-3.251562119E0,9.244014247E0
1.192233134E0,-4.881842613E0,-6.146697044E0,-7.624976158E0,1.094324144E1
1.197250477E0,-4.628688812E0,-5.517290592E0,-1.107425404E1,1.321000977E1
1.202267821E0,-3.970850468E0,-5.214344978E0,-1.441366577E1,1.583385007E1
1.207285165E0,-2.843918800E0,-4.779937744E0,-1.821319580E1,1.904353382E1
1.212302509E0,-2.407392740E0,-4.428738594E0,-2.275166702E1,2.330338211E1
1.217319852E0,-2.473785639E0,-3.938399553E0,-2.773482895E1,2.812207928E1
1.222337196E0,-2.637968540E0,-3.464502573E0,-3.255398178E1,3.284392464E1
1.227354540E0,-2.849168062E0,-3.178064823E0,-3.670676041E1,3.695408116E1
1.232371884E0,-2.732351780E0,-3.141918659E0,-4.010712433E1,4.032268370E1
1.237389227E0,-2.360673189E0,-3.215287209E0,-4.267287064E1,4.285889334E1
1.242406571E0,-1.928663731E0,-3.187610388E0,-4.489458466E1,4.504891048E1
1.247423915E0,-1.425439596E0,-3.040326118E0,-4.648683929E1,4.660795735E1
1.252441259E0,-9.214267135E-1,-2.960519791E0,-4.759934235E1,4.770022114E1
1.257458602E0,-3.375806212E-1,-3.039417744E0,-4.792218781E1,4.801966373E1
1.262475946E0,8.258908987E-2,-3.401908875E0,-4.719337463E1,4.731590023E1
1.267493290E0,2.450402379E-1,-4.163786888E0,-4.537535858E1,4.556665812E1
1.272510634E0,-3.465871215E-1,-5.054660797E0,-4.224302673E1,4.254577565E1
1.277527977E0,-1.647667646E0,-5.742785454E0,-3.862313843E1,3.908249244E1
1.282545321E0,-2.793081045E0,-6.455603600E0,-3.479146576E1,3.549538293E1
1.287562665E0,-3.712742567E0,-7.372796059E0,-3.065019035E1,3.174234944E1
1.292580009E0,-4.512650490E0,-8.454092979E0,-2.627859116E1,2.797141497E1
1.297597352E0,-5.392721176E0,-9.511671066E0,-2.362249374E1,2.603028119E1
1.302614696E0,-6.690925598E0,-1.013606167E1,-2.003644562E1,2.343005302E1
1.307632040E0,-5.529597282E0,-9.809018135E0,-9.001836777E0,1.441618355E1
1.312649384E0,-2.740256786E0,-9.177513123E0,8.662035942E0,1.291381512E1
1.317666727E0,-6.181423068E-1,-9.225223541E0,3.104772949E1,3.239519032E1
1.322684071E0,8.855167627E-1,-6.588853836E0,4.263364792E1,4.314887101E1
1.327701415E0,-3.191070318E0,-4.342166901E0,4.152520752E1,4.187338299E1
1.332718759E0,-2.272039205E-1,-3.605386496E0,4.968959045E1,4.982073698E1
1.337736102E0,1.481281400E0,-5.456508636E0,5.332643509E1,5.362533320E1
1.342753446E0,2.071663380E0,-6.932118893E0,5.408249664E1,5.456429698E1
1.347770790E0,4.114672661E0,-7.540011406E0,5.852842712E1,5.915538086E1
1.352788134E0,7.131149769E0,-8.300990105E0,6.267671967E1,6.362492375E1
1.357805477E0,9.406029701E0,-9.098591805E0,6.030579376E1,6.170937148E1
1.362822821E0,8.321509361E0,-9.581990242E0,5.103752518E1,5.259173919E1
1.367840165E0,6.508775711E0,-8.631758690E0,4.363175201E1,4.495109791E1
1.372857509E0,5.952090740E0,-6.584212780E0,3.991900253E1,4.089383823E1
1.377874852E0,5.459061146E0,-4.867290974E0,3.809295654E1,3.878872527E1
1.382892196E0,4.815168381E0,-4.054749966E0,3.687064743E1,3.740416402E1
1.387909540E0,4.342298031E0,-4.168015957E0,3.348377228E1,3.402044849E1
1.392926884E0,3.117759705E0,-4.283659458E0,2.710030937E1,2.761334699E1
1.397944227E0,1.114139557E0,-5.262158871E0,1.885526276E1,1.960746176E1
1.402961571E0,-1.059104204E0,-6.713207245E0,1.064731407E1,1.263147458E1
1.407978915E0,-2.797989368E0,-7.718905449E0,3.783912659E0,9.040367296E0
1.412996259E0,-4.017186165E0,-7.690109253E0,-2.242339134E0,8.961230373E0
1.418013602E0,-4.768424988E0,-6.890353203E0,-7.933949471E0,1.153960131E1
1.423030946E0,-5.317065716E0,-5.884476662E0,-1.328165245E1,1.546934211E1
1.428048290E0,-6.095079899E0,-5.609909058E0,-1.869762039E1,2.045047889E1
1.433065634E0,-6.360190392E0,-5.697601318E0,-2.423033142E1,2.569092531E1
1.438082977E0,-5.497133255E0,-4.111506462E0,-3.023600578E1,3.100546734E1
1.443100321E0,-4.460140228E0,-1.723875999E0,-3.670914841E1,3.701926763E1
1.448117665E0,-4.227178097E0,-1.603000164E-1,-4.352158356E1,4.372668483E1
1.453135009E0,-4.497239113E0,4.755053520E-1,-4.961793518E1,4.982359638E1
1.458152352E0,-5.190688610E0,1.672797203E-1,-5.415382004E1,5.440227436E1
1.463169696E0,-6.286712170E0,-9.659223557E-1,-5.721207809E1,5.756455190E1
1.468187040E0,-6.422894955E0,-1.723395228E0,-5.850933075E1,5.888603787E1
1.473204384E0,-5.803728104E0,-1.851776600E0,-5.794149017E1,5.826086697E1
1.478221727E0,-5.141329765E0,-2.013509512E0,-5.596215820E1,5.623389230E1
1.483239071E0,-4.879019737E0,-2.382834435E0,-5.287049484E1,5.314858379E1
1.488256415E0,-5.105281830E0,-3.094737053E0,-4.903705978E1,4.939913493E1
1.493273759E0,-5.520066738E0,-4.086876392E0,-4.433983231E1,4.486863520E1
1.498291102E0,-6.003106594E0,-5.229746819E0,-3.847577667E1,3.929087593E1
1.503308446E0,-6.956407547E0,-6.116427422E0,-3.203264236E1,3.334505162E1
1.508325790E0,-7.748097897E0,-6.962028503E0,-2.478474808E1,2.688469080E1
1.513343134E0,-7.793706894E0,-7.991904259E0,-1.684165573E1,2.020529061E1
1.518360477E0,-7.112086296E0,-9.500442505E0,-9.491025925E0,1.519604397E1
1.523377821E0,-2.346680641E0,-8.083762169E0,1.589346313E1,1.798489064E1
1.528395165E0,3.543187618E0,-1.009880733E1,3.726045227E1,3.876701422E1
1.533412509E0,2.800227880E0,-8.056139946E0,4.442228317E1,4.523363692E1
1.538429852E0,4.090555668E0,-5.727886200E0,5.149530029E1,5.197410200E1
1.543447196E0,6.118238926E0,-5.329572678E0,6.009603882E1,6.064133140E1
1.548464540E0,4.100796700E0,-5.653815746E0,6.332218170E1,6.370620740E1
1.553481884E0,6.105758667E0,-4.222324371E0,6.734122467E1,6.774916126E1
1.558499227E0,7.943051815E0,-4.179384232E0,7.241742706E1,7.297152230E1
1.563516571E0,7.089306831E0,-6.198645115E0,7.014519501E1,7.077450004E1
1.568533915E0,6.607967854E0,-7.233168125E0,6.120301437E1,6.198219848E1
1.573551259E0,8.490357399E0,-5.714588642E0,5.331431961E1,5.428774602E1
1.578568602E0,9.337001801E0,-3.835365295E0,4.760379791E1,4.866221538E1
1.583585946E0,9.307471275E0,-2.971914053E0,4.150822830E1,4.264263490E1
1.588603290E0,7.491823196E0,-3.288330078E0,3.494052124E1,3.588565945E1
1.593620634E0,3.904378891E0,-4.690849781E0,2.737754440E1,2.804956655E1
1.598637977E0,1.418871164E0,-6.019657612E0,1.894628143E1,1.993015437E1
1.603655321E0,-1.482213140E-1,-7.517348289E0,1.148003864E1,1.372311124E1
1.608672665E0,-1.865747213E0,-8.520270348E0,5.728370667E0,1.043504911E1
1.613690061E0,-3.231907129E0,-8.702604294E0,3.927049637E-1,9.291650143E0
1.618707456E0,-3.885399580E0,-8.408861160E0,-5.322169304E0,1.068319999E1
1.623724852E0,-4.264685631E0,-8.110907555E0,-1.159927750E1,1.478234093E1
1.628742248E0,-4.591588020E0,-7.820416451E0,-1.800080872E1,2.015615808E1
1.633759644E0,-5.023178101E0,-7.114564419E0,-2.415271187E1,2.567494568E1
1.638777040E0,-4.964662075E0,-6.045951843E0,-3.010757828E1,3.110735722E1
1.643794436E0,-3.138632298E0,-5.471692562E0,-3.662119293E1,3.716049252E1
1.648811831E0,-3.711521626E0,-4.816442490E0,-4.362218475E1,4.404393844E1
1.653829227E0,-5.739632607E0,-4.394110680E0,-4.985840225E1,5.037967712E1
1.658846623E0,-7.389171124E0,-4.394939899E0,-5.513510132E1,5.580138658E1
1.663864019E0,-7.973270416E0,-4.475652695E0,-5.927483368E1,5.997591530E1
1.668881415E0,-7.943586826E0,-4.568883896E0,-6.147628784E1,6.215552460E1
1.673898811E0,-7.635884285E0,-4.495561600E0,-6.159180450E1,6.222593659E1
1.678916206E0,-7.739737511E0,-4.428298473E0,-5.946692657E1,6.013176133E1
1.683933602E0,-8.710541725E0,-4.571177006E0,-5.506483078E1,5.593661399E1
1.688950998E0,-9.082479477E0,-5.021262169E0,-4.933709335E1,5.041679569E1
1.693968394E0,-9.274560928E0,-5.561535835E0,-4.329196930E1,4.462222279E1
1.698985790E0,-9.436143875E0,-6.035181046E0,-3.793398666E1,3.955314862E1
1.704003186E0,-9.628875732E0,-6.342711449E0,-3.340377045E1,3.533775766E1
1.709020581E0,-9.927985191E0,-6.854067326E0,-2.937493134E1,3.175578246E1
1.714037977E0,-1.036152840E1,-7.868752003E0,-2.460876083E1,2.783648036E1
1.719055373E0,-1.175631618E1,-9.550585747E0,-1.840233612E1,2.383423238E1
1.724072769E0,-1.126960468E1,-9.407876968E0,2.294553757E0,1.485857045E1
1.729090165E0,-2.837367773E0,-1.147947884E1,3.628797150E1,3.816603157E1
1.734107561E0,7.941640377E0,-1.086996365E1,5.752637482E1,5.908053454E1
1.739124956E0,1.206085682E1,-6.356768131E0,6.346908951E1,6.491685522E1
1.744142352E0,9.355749130E0,-4.284314632E0,6.532309723E1,6.612860520E1
1.749159748E0,6.788864136E0,-4.937579632E0,6.633511353E1,6.686415823E1
1.754177144E0,7.631667614E0,-5.016315460E0,6.964930725E1,7.024551069E1
1.759194488E0,9.334350586E0,-5.410429478E0,7.632151031E1,7.708032035E1
1.764211831E0,1.088132286E1,-5.953358173E0,7.526929474E1,7.628441775E1
1.769229175E0,1.060247231E1,-6.467334747E0,6.408659363E1,6.527886580E1
1.774246519E0,1.059822273E1,-5.608555317E0,5.450923538E1,5.581249824E1
1.779263863E0,9.584793091E0,-3.954044580E0,4.878565598E1,4.987527400E1
1.784281206E0,8.013476372E0,-2.936797380E0,4.447009659E1,4.528167480E1
1.789298550E0,6.445374012E0,-3.418033600E0,3.940229034E1,4.007201373E1
1.794315894E0,4.433125496E0,-4.855700016E0,3.175440216E1,3.242795832E1
1.799333238E0,1.923911572E0,-6.070054531E0,2.328638840E1,2.414131070E1
1.804350581E0,-3.048410416E-1,-7.301601887E0,1.523331356E1,1.689556629E1
1.809367925E0,-2.931234598E0,-8.252284050E0,8.693834305E0,1.233997906E1
1.814385269E0,-5.116711617E0,-8.509718895E0,3.516994476E0,1.053400701E1
1.819402613E0,-6.150620461E0,-8.301051140E0,-2.135890961E0,1.054986314E1
1.824419956E0,-5.469184875E0,-7.837292671E0,-8.958715439E0,1.309937868E1
1.829437300E0,-5.325244904E0,-7.878824234E0,-1.534484673E1,1.805265702E1
1.834454644E0,-5.545846462E0,-8.161845207E0,-2.247337341E1,2.454434034E1
1.839471988E0,-5.465904236E0,-7.935024738E0,-2.924663162E1,3.079295679E1
1.844489331E0,-5.226876259E0,-7.121578217E0,-3.665483856E1,3.770430084E1
1.849506675E0,-5.534470558E0,-6.361475945E0,-4.457857132E1,4.536901764E1
1.854524019E0,-6.635348797E0,-5.881516457E0,-5.283267975E1,5.357156092E1
1.859541363E0,-7.725481510E0,-5.234117508E0,-6.062490082E1,6.133887552E1
1.864558706E0,-8.227940559E0,-4.729477882E0,-6.647412872E1,6.714817016E1
1.869576050E0,-8.134016991E0,-3.839495897E0,-6.991265869E1,7.048889137E1
1.874593394E0,-7.936654568E0,-3.169646978E0,-7.080488586E1,7.131878441E1
1.879610738E0,-9.010800362E0,-2.844101429E0,-6.843529510E1,6.908453555E1
1.884628081E0,-1.067816830E1,-3.526184320E0,-6.352648926E1,6.451412319E1
1.889645425E0,-1.050086975E1,-4.442992687E0,-5.907806778E1,6.016831843E1
1.894662769E0,-9.558900833E0,-4.311633110E0,-5.493102264E1,5.592298288E1
1.899680113E0,-1.015495300E1,-4.641043663E0,-5.012274170E1,5.135125697E1
1.904697456E0,-1.170822430E1,-6.427267075E0,-4.408618164E1,4.606499419E1
1.909714800E0,-1.307298279E1,-9.048600197E0,-3.705881119E1,4.032537081E1
1.914732144E0,-1.357639694E1,-1.187746239E1,-2.830534363E1,3.356464128E1
1.919749488E0,-1.472799301E1,-1.591269875E1,-1.999336624E1,2.949343068E1
1.924766831E0,-1.413101101E1,-1.787755775E1,3.874108315E0,2.311495747E1
1.929784175E0,-4.221226692E0,-1.874308777E1,4.449013519E1,4.846126519E1
1.934801519E0,1.600409150E0,-1.686659813E1,7.329101562E1,7.522377558E1
1.939818863E0,8.062555313E0,-9.317527771E0,8.764025116E1,8.850217368E1
1.944836206E0,1.391642094E1,-5.840487003E0,9.684879303E1,9.801768601E1
1.949853550E0,1.066016769E1,-5.013611794E0,9.311308289E1,9.385532315E1
1.954870894E0,1.020561123E1,-3.857280731E0,9.034232330E1,9.099872799E1
1.959888238E0,1.080893612E1,-5.122683525E0,8.918474579E1,8.998329772E1
1.964905581E0,1.119103432E1,-5.568623066E0,8.038946533E1,8.135548505E1
1.969922925E0,1.236560154E1,-3.542367697E0,6.758153534E1,6.879477007E1
1.974940269E0,1.167097759E1,-1.322732925E0,5.522853470E1,5.646372628E1
1.979957613E0,9.100829124E0,-5.601153374E-1,4.439325333E1,4.531997088E1
1.984974956E0,5.480637550E0,-1.454450130E0,3.458797455E1,3.504969039E1
1.989992300E0,7.473350167E-1,-3.352689981E0,2.619978333E1,2.642399830E1
1.995009644E0,-2.868338585E0,-5.526327610E0,1.823259735E1,1.926642855E1
2.000026988E0,-4.475069523E0,-6.962570190E0,1.081077766E1,1.361530553E1
2.005044331E0,-4.769165039E0,-7.542150497E0,4.254828453E0,9.885976657E0
2.010061675E0,-4.487443924E0,-7.731353760E0,-2.062213898E0,9.174078160E0
2.015079019E0,-4.077929974E0,-7.799325943E0,-8.963097572E0,1.256169241E1
2.020096363E0,-3.778544903E0,-7.707195282E0,-1.665814018E1,1.873958097E1
2.025113706E0,-4.115379810E0,-7.481508255E0,-2.523397255E1,2.663949488E1
2.030131050E0,-5.068634987E0,-7.553708076E0,-3.432894135E1,3.551374072E1
2.035148394E0,-6.181373596E0,-7.621839046E0,-4.358842087E1,4.467943871E1
2.040165738E0,-6.578133583E0,-7.082633018E0,-5.259313202E1,5.347404106E1
2.045183081E0,-6.563889503E0,-5.922181606E0,-6.107865906E1,6.171514784E1
2.050200425E0,-6.686798096E0,-4.496629715E0,-6.825968933E1,6.873367541E1
2.055217769E0,-7.072097778E0,-3.452385426E0,-7.371781921E1,7.413670077E1
2.060235113E0,-7.668796062E0,-3.377863407E0,-7.618453217E1,7.664400391E1
2.065252456E0,-7.930304527E0,-3.654381752E0,-7.506474304E1,7.557089310E1
2.070269800E0,-8.255509377E0,-4.087839603E0,-7.189469147E1,7.248248429E1
2.075287144E0,-9.123303413E0,-5.053092003E0,-6.737025452E1,6.817271887E1
2.080304488E0,-9.489948273E0,-6.411219120E0,-6.167435074E1,6.272868871E1
2.085321831E0,-9.630787849E0,-8.290649414E0,-5.446879578E1,5.593153543E1
2.090339175E0,-1.054674816E1,-1.037489223E1,-4.714244843E1,4.940933848E1
2.095356519E0,-1.113445473E1,-1.201110554E1,-3.988246918E1,4.311443014E1
2.100373863E0,-1.323331928E1,-1.445380020E1,-3.407991791E1,3.931251562E1
2.105391206E0,-1.423802853E1,-1.713765144E1,-1.594490814E1,2.739818697E1
2.110408550E0,-7.692842960E0,-1.836184120E1,2.373851776E1,3.098151498E1
2.115425894E0,-1.443824053E0,-1.952381516E1,6.324576187E1,6.620642250E1
2.120443238E0,1.642017841E0,-1.347689724E1,8.378053284E1,8.487343910E1
2.125460581E0,1.011524391E1,-7.571927547E0,9.646664429E1,9.729062497E1
2.130477925E0,9.288049698E0,-7.870994568E0,9.678875732E1,9.755144267E1
2.135495269E0,6.430485249E0,-6.786712646E0,9.417660522E1,9.463954554E1
2.140512613E0,8.614642143E0,-6.736243248E0,9.572704315E1,9.634965398E1
2.145529956E0,1.095867157E1,-7.586596489E0,9.079307556E1,9.176617840E1
2.150547300E0,1.272583389E1,-6.988831043E0,7.989882660E1,8.120722320E1
2.155564644E0,1.406183529E1,-5.032703876E0,6.908734131E1,7.068326569E1
2.160581988E0,1.374683380E1,-3.330239534E0,6.034497070E1,6.198049229E1
2.165599331E0,1.098514557E1,-3.329751492E0,5.167780685E1,5.293728733E1
2.170616675E0,5.345050812E0,-5.003849030E0,4.197377014E1,4.260757507E1
2.175634019E0,-3.848949075E-1,-7.474710464E0,3.172766876E1,3.259853380E1
2.180651363E0,-3.973949432E0,-9.628579140E0,2.176820183E1,2.413206210E1
2.185668706E0,-5.809201717E0,-1.076466942E1,1.320079803E1,1.799683308E1
2.190686050E0,-6.966015339E0,-1.099512005E1,5.900565147E0,1.429107077E1
2.195703394E0,-7.068617821E0,-1.075348568E1,-1.213773727E0,1.292579045E1
2.200720738E0,-6.010958672E0,-1.027023125E1,-9.734292030E0,1.537418991E1
2.205738081E0,-4.932051182E0,-9.595951080E0,-2.011858940E1,2.282903952E1
2.210755425E0,-5.414213657E0,-9.308935165E0,-3.227068710E1,3.402010038E1
2.215772769E0,-7.217369080E0,-9.730431557E0,-4.540877533E1,4.699711259E1
2.220790113E0,-9.231356621E0,-1.004076004E1,-5.894204712E1,6.049958451E1
2.225807456E0,-1.035890007E1,-9.048800468E0,-7.081549835E1,7.213891050E1
2.230824800E0,-1.099888039E1,-7.152156830E0,-7.981979370E1,8.089084116E1
2.235842144E0,-1.127353954E1,-5.563161850E0,-8.575748444E1,8.667403072E1
2.240859488E0,-1.176945686E1,-4.805885315E0,-8.760821533E1,8.852579309E1
2.245876831E0,-1.245904446E1,-4.509540558E0,-8.660023499E1,8.760801587E1
2.250894175E0,-1.264702415E1,-4.731666088E0,-8.406559753E1,8.514317690E1
2.255911519E0,-1.143747044E1,-5.638181686E0,-8.019490814E1,8.120238983E1
2.260928863E0,-1.069324875E1,-6.765560627E0,-7.368848419E1,7.476704543E1
2.265946206E0,-1.108325386E1,-8.064131737E0,-6.502908325E1,6.645788445E1
2.270963550E0,-1.109009266E1,-9.886463165E0,-5.569186401E1,5.763953527E1
2.275980894E0,-1.179486847E1,-1.227172375E1,-4.594718933E1,4.899855440E1
2.280998238E0,-1.218104839E1,-1.504431057E1,-3.538193893E1,4.033101565E1
2.286015581E0,-1.227647209E1,-1.804929161E1,-2.538514709E1,3.347976087E1
2.291032925E0,-1.350256157E1,-2.127635574E1,-1.875019455E1,3.140974814E1
2.296050269E0,-1.356102180E1,-2.347762108E1,6.627791405E0,2.791106631E1
2.301067613E0,-6.347200394E0,-2.607247925E1,6.009024048E1,6.580955955E1
2.306084956E0,-2.658794880E0,-2.315205574E1,9.006276703E1,9.302896796E1
2.311102300E0,4.495312691E0,-1.326708889E1,1.006884613E2,1.016582005E2
2.316119644E0,1.125416279E1,-9.821834564E0,1.130966949E2,1.140788632E2
2.321136988E0,6.666682243E0,-8.849149704E0,1.095850449E2,1.101436978E2
2.326154331E0,7.066869736E0,-6.922738075E0,1.067965240E2,1.072537295E2
2.331171675E0,1.259866905E1,-6.908785820E0,1.034652100E2,1.044581613E2
2.336189019E0,1.710405731E1,-5.719970226E0,9.394267273E1,9.565820715E1
2.341206363E0,1.930409241E1,-3.274158478E0,7.903515625E1,8.142434538E1
2.346223706E0,1.681232834E1,-1.979009151E0,6.531237793E1,6.747056819E1
2.351241050E0,9.317985535E0,-2.919668436E0,5.170930481E1,5.262320327E1
2.356258394E0,1.801667929E0,-4.758939743E0,3.774473953E1,3.808620324E1
2.361275738E0,-3.496054649E0,-6.970571995E0,2.469588852E1,2.589784126E1
2.366293081E0,-5.817502022E0,-8.246176720E0,1.418146229E1,1.740564945E1
2.371310425E0,-6.253449440E0,-8.352416039E0,7.153774261E0,1.265088810E1
2.376327769E0,-5.752625942E0,-7.926136971E0,1.945061684E0,9.984969577E0
2.381345113E0,-4.840335846E0,-7.436760902E0,-4.968826771E0,1.016973467E1
2.386362456E0,-4.884133339E0,-7.194478989E0,-1.451027870E1,1.691636706E1
2.391379800E0,-6.212684631E0,-7.163340569E0,-2.628648567E1,2.794441317E1
2.396397196E0,-8.391822815E0,-7.272615433E0,-3.951614380E1,4.104679337E1
2.401414592E0,-1.066169930E1,-7.213383675E0,-5.277766800E1,5.432482835E1
2.406431988E0,-1.192426491E1,-6.251463890E0,-6.462651062E1,6.601404979E1
2.411449384E0,-1.216026878E1,-4.566443443E0,-7.413323975E1,7.526261873E1
2.416466779E0,-1.202009010E1,-3.176053286E0,-8.148217010E1,8.242520201E1
2.421484175E0,-1.182237053E1,-2.910751820E0,-8.610273743E1,8.695931413E1
2.426501571E0,-1.139134693E1,-2.866711617E0,-8.749009705E1,8.827512618E1
2.431518967E0,-1.050631237E1,-3.143054962E0,-8.610879517E1,8.680429712E1
2.436536363E0,-9.380300522E0,-4.246628284E0,-8.152556610E1,8.217324271E1
2.441553759E0,-9.564237595E0,-5.715997219E0,-7.394475555E1,7.477950347E1
2.446571154E0,-1.055910492E1,-7.391628265E0,-6.495567322E1,6.622212884E1
2.451588550E0,-1.125147438E1,-9.356441498E0,-5.532804108E1,5.723050587E1
2.456605946E0,-1.150901985E1,-1.154462814E1,-4.587908173E1,4.868907595E1
2.461623342E0,-1.205948639E1,-1.411646461E1,-3.700633240E1,4.140258957E1
2.466640738E0,-1.241407776E1,-1.697950172E1,-2.886970520E1,3.571936007E1
2.471658134E0,-1.388318348E1,-2.005564308E1,-2.184990692E1,3.274736685E1
2.476675529E0,-1.015209293E1,-1.878311539E1,6.741214752E0,2.239005116E1
2.481692925E0,-3.288269043E0,-2.035045815E1,5.290196228E1,5.677650459E1
2.486710321E0,-1.874891520E0,-1.746549225E1,7.387305450E1,7.593277829E1
2.491727717E0,5.739780426E0,-1.201884270E1,8.200642395E1,8.308099198E1
2.496745113E0,1.100687218E1,-1.258258343E1,9.669587708E1,9.813034844E1
2.501762509E0,7.498326302E0,-1.339624023E1,9.949397278E1,1.006714198E2
2.506779904E0,1.008809566E1,-1.125627518E1,1.044656525E2,1.055535217E2
2.511797300E0,1.473926449E1,-9.905368805E0,1.070799942E2,1.085425603E2
2.516814696E0,1.729897308E1,-7.782144547E0,9.795769501E1,9.977738348E1
2.521832092E0,1.763945389E1,-5.513956070E0,8.261543274E1,8.465733147E1
2.526849488E0,1.574687386E1,-3.930203199E0,6.979463196E1,7.165682929E1
2.531866884E0,1.054377365E1,-3.943912268E0,5.934820557E1,6.040641614E1
2.536884279E0,4.822211266E0,-5.159289360E0,4.734765625E1,4.787141674E1
2.541901675E0,9.455488920E-1,-6.658095837E0,3.408531952E1,3.474238492E1
2.546919071E0,-8.682465553E-1,-8.338993073E0,2.152828789E1,2.310324300E1
2.551936415E0,-1.647579074E0,-9.840779305E0,1.199289417E1,1.560080013E1
2.556953759E0,-2.560528278E0,-1.092226315E1,4.564116478E0,1.211128798E1
2.561971102E0,-3.796671391E0,-1.048961639E1,-3.764822483E0,1.177372728E1
2.566988446E0,-5.604854107E0,-9.192884445E0,-1.427862740E1,1.788302867E1
2.572005790E0,-7.742430687E0,-8.245932579E0,-2.641016769E1,2.873042977E1
2.577023134E0,-9.999520302E0,-8.269506454E0,-3.881621552E1,4.092766461E1
2.582040477E0,-1.091823387E1,-7.913054943E0,-5.051309204E1,5.228189684E1
2.587057821E0,-1.125293446E1,-7.190048218E0,-5.973115158E1,6.120568435E1
2.592075165E0,-1.176530647E1,-6.511936665E0,-6.806292725E1,6.937859771E1
2.597092509E0,-1.194642067E1,-5.664580822E0,-7.501350403E1,7.616974615E1
2.602109852E0,-1.154296970E1,-4.708981991E0,-7.980539703E1,8.077323849E1
2.607127196E0,-1.152563190E1,-4.230319977E0,-8.165493774E1,8.257278399E1
2.612144540E0,-1.130810452E1,-4.399519444E0,-8.069922638E1,8.160633638E1
2.617161884E0,-1.114343071E1,-4.978405952E0,-7.743105316E1,7.838704337E1
2.622179227E0,-1.140025234E1,-5.930467129E0,-7.276195526E1,7.388801207E1
2.627196571E0,-1.203756523E1,-7.274883270E0,-6.730566406E1,6.875957619E1
2.632213915E0,-1.238030529E1,-8.925142288E0,-6.075180054E1,6.263953538E1
2.637231259E0,-1.165792561E1,-1.060478878E1,-5.324449539E1,5.552787646E1
2.642248602E0,-1.023606300E1,-1.223465443E1,-4.496187210E1,4.770779494E1
2.647265946E0,-8.743556023E0,-1.407875443E1,-3.603562927E1,3.966393419E1
2.652283290E0,-9.092036247E0,-1.720220566E1,-2.830254555E1,3.434552499E1
2.657300634E0,-1.187429428E1,-2.183529091E1,-1.930210495E1,3.146982760E1
2.662317977E0,-9.986035347E0,-2.525334930E1,2.256354523E1,3.530674335E1
2.667335321E0,4.828669429E-1,-2.449659348E1,7.201937866E1,7.607303829E1
2.672352665E0,4.007141590E0,-1.927011299E1,7.121190643E1,7.388186554E1
2.677370009E0,1.188180637E1,-1.716394234E1,8.913676453E1,9.154857197E1
2.682387352E0,6.197803497E0,-1.783226776E1,9.453507996E1,9.640167988E1
2.687404696E0,7.192890167E0,-1.512217808E1,9.784609985E1,9.926871207E1
2.692422040E0,1.191657734E1,-1.188338280E1,1.060296173E2,1.073568784E2
2.697439384E0,1.437494564E1,-9.966491699E0,1.025795364E2,1.040602293E2
2.702456727E0,1.432289410E1,-9.478796005E0,8.254321289E1,8.431117876E1
2.707474071E0,1.340572739E1,-8.731194496E0,6.359372711E1,6.557521950E1
2.712491415E0,1.211360931E1,-6.254009724E0,4.912274551E1,5.097937127E1
2.717508759E0,9.197971344E0,-3.906798124E0,3.788932800E1,3.918503445E1
2.722526102E0,4.437803268E0,-3.226239681E0,2.916606140E1,2.967763228E1
2.727543446E0,-2.551161051E-1,-4.431160927E0,2.209177208E1,2.253323468E1
2.732560790E0,-3.292586565E0,-6.041282177E0,1.517857075E1,1.666515006E1
2.737578134E0,-4.469966888E0,-7.085185051E0,7.727993011E0,1.139747021E1
2.742595477E0,-5.041017532E0,-7.215145111E0,3.755760193E-1,8.809723837E0
2.747612821E0,-5.770534992E0,-6.492296219E0,-6.368232727E0,1.077048617E1
2.752630165E0,-6.242308617E0,-5.189936161E0,-1.308310604E1,1.539706199E1
2.757647509E0,-6.590798378E0,-4.078756332E0,-2.057235146E1,2.198400602E1
2.762664852E0,-7.680721760E0,-4.242774963E0,-2.874471283E1,3.005417012E1
2.767682196E0,-7.448618889E0,-2.257737160E0,-3.885394669E1,3.962585612E1
2.772699540E0,-7.404696465E0,-1.966691017E-1,-4.871565247E1,4.927558223E1
2.777716884E0,-8.011720657E0,1.199200392E0,-5.774668503E1,5.831213751E1
2.782734227E0,-8.739623070E0,1.885870695E0,-6.505890656E1,6.567038025E1
2.787751571E0,-8.725295067E0,2.223353624E0,-6.999960327E1,7.057633126E1
2.792768915E0,-8.582842827E0,2.299414873E0,-7.236981964E1,7.291325870E1
2.797786259E0,-9.009757996E0,1.761705875E0,-7.294368744E1,7.351911917E1
2.802803602E0,-1.069272804E1,2.267978191E-1,-7.205572510E1,7.284513292E1
2.807820946E0,-1.262681866E1,-1.572283149E0,-6.903585052E1,7.019869857E1
2.812838290E0,-1.362746716E1,-2.803364038E0,-6.387948608E1,6.537702542E1
2.817855634E0,-1.275960445E1,-3.568865061E0,-5.698321152E1,5.850325374E1
2.822872977E0,-1.061469936E1,-4.694094658E0,-4.882406616E1,5.018461720E1
2.827890321E0,-9.101234436E0,-6.930310249E0,-4.004167938E1,4.164370008E1
2.832907665E0,-1.025314045E1,-1.092666245E1,-3.183015060E1,3.518063855E1
2.837925009E0,-1.379588699E1,-1.658197212E1,-1.490462208E1,2.621900182E1
2.842942352E0,-6.675773144E0,-2.157456207E1,3.762194443E1,4.387981744E1
2.847959696E0,2.956329107E0,-1.911923790E1,5.905714417E1,6.214524452E1
2.852977040E0,6.168555737E0,-1.519792938E1,7.035397339E1,7.224063752E1
2.857994384E0,8.520745277E0,-1.483470440E1,9.064869690E1,9.224889053E1
2.863011727E0,4.358770847E0,-1.464709949E1,9.137368774E1,9.264279367E1
2.868029071E0,6.431140900E0,-1.217573452E1,9.359233856E1,9.459986217E1
2.873046415E0,1.045848751E1,-9.346611977E0,9.748262024E1,9.848654916E1
2.878063759E0,1.266707802E1,-7.338238239E0,8.842167664E1,8.962531732E1
2.883081102E0,1.325044727E1,-6.196373940E0,7.263334656E1,7.409164889E1
2.888098446E0,1.262422371E1,-4.746100903E0,5.835774994E1,5.989593873E1
2.893115790E0,1.095311928E1,-3.161559105E0,4.747471619E1,4.882432749E1
2.898133134E0,8.047276497E0,-2.539029121E0,3.873498535E1,3.964346627E1
2.903150477E0,3.991817474E0,-3.458203793E0,3.079531479E1,3.124492268E1
2.908167821E0,7.292101383E-1,-4.906949043E0,2.313555527E1,2.366144150E1
2.913185165E0,-2.030242682E0,-6.601170540E0,1.576985931E1,1.721585899E1
2.918202509E0,-5.158272266E0,-8.527647018E0,9.781542778E0,1.396449482E1
2.923219852E0,-6.784346581E0,-8.350378036E0,4.923159599E0,1.183189217E1
2.928237196E0,-7.182272434E0,-7.629195213E0,1.069622993E0,1.053250921E1
2.933254540E0,-6.085614204E0,-6.736785889E0,-3.388786316E0,9.690348655E0
2.938271884E0,-5.112658978E0,-6.028504372E0,-9.752418518E0,1.255355781E1
2.943289227E0,-5.204616070E0,-6.064665794E0,-1.863211441E1,2.027372405E1
2.948306571E0,-6.910726547E0,-7.188192368E0,-2.969852829E1,3.132779650E1
2.953323915E0,-9.605735779E0,-9.098939896E0,-4.179078293E1,4.383526440E1
2.958341259E0,-1.132138157E1,-1.038524437E1,-5.317150497E1,5.534650777E1
2.963358602E0,-1.112108135E1,-1.027479362E1,-6.301388931E1,6.480740761E1
2.968375946E0,-9.468924522E0,-9.493906021E0,-7.067951965E1,7.194017849E1
2.973393290E0,-8.141552925E0,-9.646449089E0,-7.616250610E1,7.720146501E1
2.978410634E0,-8.034208298E0,-1.117784214E1,-7.853852081E1,7.973576305E1
2.983427977E0,-8.322020531E0,-1.301813698E1,-7.888124084E1,8.038020946E1
2.988445321E0,-8.098498344E0,-1.458690453E1,-7.752317047E1,7.929820565E1
2.993462665E0,-7.741664886E0,-1.588448143E1,-7.359628296E1,7.568793161E1
2.998480009E0,-8.144353867E0,-1.648394012E1,-6.716677856E1,6.963782682E1
3.003497352E0,-8.549658775E0,-1.695488739E1,-5.941847229E1,6.237884033E1
3.008514696E0,-8.506982803E0,-1.756784248E1,-5.071291733E1,5.433965246E1
3.013532040E0,-8.853487968E0,-1.858483887E1,-4.235660553E1,4.709418772E1
3.018549384E0,-1.175819778E1,-1.862845039E1,-3.830865097E1,4.419080355E1
3.023566727E0,-1.488444996E1,-1.791791916E1,-2.922904968E1,3.737560732E1
3.028584071E0,-1.162612438E1,-1.670847702E1,-7.946249485E0,2.185138104E1
3.033601415E0,-1.036912346E1,-1.982359695E1,2.143450546E1,3.098276524E1
3.038618759E0,-9.198654175E0,-2.253960228E1,6.007760620E1,6.482258616E1
3.043636102E0,-5.487546921E0,-1.825421143E1,8.793444824E1,8.997664471E1
3.048653446E0,1.929680467E0,-1.147943211E1,1.019294891E2,1.025920162E2
3.053670790E0,9.637747765E0,-9.557153702E0,1.119040375E2,1.127241721E2
3.058688134E0,1.093934822E1,-9.512929916E0,1.094880219E2,1.104436150E2
3.063705477E0,1.150243568E1,-8.713610649E0,1.045322495E2,1.055235718E2
3.068722821E0,1.571101475E1,-7.269081116E0,9.553823853E1,9.709392641E1
3.073740165E0,1.970271301E1,-5.956178665E0,8.130458069E1,8.386958808E1
3.078757509E0,1.931161880E1,-5.444327831E0,6.658483124E1,6.954221076E1
3.083774852E0,1.587009239E1,-5.619544029E0,5.494892502E1,5.747019635E1
3.088792196E0,1.121209908E1,-6.065161705E0,4.398592758E1,4.579584236E1
3.093809540E0,6.766352177E0,-6.143104076E0,3.252688217E1,3.378637763E1
3.098826884E0,3.302480698E0,-6.673319340E0,2.220593643E1,2.342099875E1
3.103844227E0,9.503672123E-1,-8.034790039E0,1.299452686E1,1.530747455E1
3.108861571E0,-1.516441107E0,-9.286762238E0,4.906684875E0,1.061221480E1
3.113878915E0,-3.859172821E0,-8.862839699E0,-2.276892662E0,9.931131989E0
3.118896259E0,-4.890973568E0,-7.218178272E0,-1.012235928E1,1.335986068E1
3.123913602E0,-5.711793423E0,-5.732381821E0,-2.001232147E1,2.158651885E1
3.128930946E0,-7.766891956E0,-5.504920959E0,-3.173298073E1,3.313021025E1
3.133948290E0,-1.129925919E1,-6.145215988E0,-4.490277863E1,4.670863374E1
3.138965634E0,-1.480929756E1,-6.494138718E0,-5.821263504E1,6.041688514E1
3.143982977E0,-1.651546669E1,-5.686039925E0,-6.990101624E1,7.205028633E1
3.149000321E0,-1.657830620E1,-4.185531616E0,-7.873317719E1,8.056843117E1
3.154017665E0,-1.712450218E1,-3.166759968E0,-8.528250885E1,8.704242218E1
3.159035009E0,-1.756969643E1,-4.086255074E0,-8.888024139E1,9.069227654E1
3.164052352E0,-1.699087906E1,-5.548491478E0,-8.807398987E1,8.986936864E1
3.169069696E0,-1.597712708E1,-7.310849190E0,-8.446914673E1,8.627719197E1
3.174087040E0,-1.533941841E1,-9.906051636E0,-7.847370911E1,8.057015972E1
3.179104384E0,-1.532564831E1,-1.290584087E1,-6.987007141E1,7.268605852E1
3.184121727E0,-1.494889736E1,-1.497484398E1,-5.970321655E1,6.334184676E1
3.189139071E0,-1.383881855E1,-1.622719574E1,-4.944442749E1,5.384780581E1
3.194156415E0,-1.509701729E1,-1.739149666E1,-4.301607513E1,4.879310204E1
3.199173759E0,-1.785150719E1,-1.822731018E1,-3.031318474E1,3.962070563E1
3.204191102E0,-1.216421986E1,-1.818223953E1,4.951904297E0,2.242952151E1
3.209208446E0,-4.309050083E0,-2.056437492E1,5.155899811E1,5.567577314E1
3.214225790E0,-7.258293629E-1,-1.584799767E1,7.499945068E1,7.665900770E1
3.219243134E0,9.622546196E0,-1.009224892E1,8.895818329E1,9.004446267E1
3.224260529E0,1.656437874E1,-1.042880917E1,1.041967926E2,1.060193864E2
3.229277925E0,1.350879097E1,-9.699029922E0,1.043991699E2,1.057153976E2
3.234295321E0,1.184575844E1,-8.399335861E0,1.076217346E2,1.085970009E2
3.239312717E0,1.577396488E1,-7.566573143E0,1.049127655E2,1.063614562E2
3.244330113E0,1.838684273E1,-6.771816254E0,8.925376129E1,9.137925030E1
3.249347509E0,1.766928864E1,-6.179643154E0,7.207321930E1,7.446435853E1
3.254364904E0,1.722912216E1,-4.377854824E0,5.940862274E1,6.201123059E1
3.259382300E0,1.531866360E1,-3.174870729E0,5.052918625E1,5.289555673E1
3.264399696E0,1.089552975E1,-4.057614326E0,4.195612717E1,4.353726461E1
3.269417092E0,4.896265507E0,-5.759523392E0,3.110979462E1,3.201507218E1
3.274434488E0,-1.479660273E0,-7.637249947E0,1.906719208E1,2.059307638E1
3.279451884E0,-5.899827480E0,-9.127382278E0,7.826060295E0,1.339269545E1
3.284469279E0,-8.083341599E0,-9.935328484E0,7.308006287E-3,1.280824800E1
3.289486675E0,-7.848973274E0,-9.187226295E0,-3.646089554E0,1.262162737E1
3.294504071E0,-5.852227688E0,-7.354919434E0,-6.470892429E0,1.141121631E1
3.299521467E0,-4.245771408E0,-5.606865883E0,-1.160351944E1,1.356853652E1
3.304538863E0,-4.465544701E0,-4.867292404E0,-1.920710945E1,2.031119589E1
3.309556259E0,-5.598854542E0,-5.208233833E0,-2.945100784E1,3.042753251E1
3.314573654E0,-7.319046021E0,-6.021447182E0,-4.173809814E1,4.280064366E1
3.319591050E0,-9.658488274E0,-6.671461582E0,-5.419442368E1,5.545115285E1
3.324608446E0,-1.179922390E1,-6.617196083E0,-6.488330841E1,6.627859895E1
3.329625842E0,-1.370109940E1,-6.953381538E0,-7.442055511E1,7.599005634E1
3.334643238E0,-1.378964806E1,-6.994901657E0,-8.132863617E1,8.278544621E1
3.339660634E0,-1.394261742E1,-6.948090553E0,-8.482352448E1,8.624211759E1
3.344678029E0,-1.479428101E1,-7.521215916E0,-8.506370544E1,8.666760308E1
3.349695425E0,-1.594188118E1,-8.678779602E0,-8.226376343E1,8.424245702E1
3.354712821E0,-1.705401611E1,-9.981614113E0,-7.659918976E1,7.910694001E1
3.359730217E0,-1.780860138E1,-1.138589096E1,-6.888640594E1,7.205637876E1
3.364747613E0,-1.791600227E1,-1.306504250E1,-5.947459793E1,6.347366597E1
3.369765009E0,-1.679987335E1,-1.481593609E1,-4.944927979E1,5.428608457E1
3.374782352E0,-1.475606728E1,-1.710667992E1,-3.976459503E1,4.573404681E1
3.379799696E0,-1.402685833E1,-1.995312881E1,-3.134178543E1,3.971382150E1
3.384817040E0,-1.714166069E1,-2.341170120E1,-1.959984589E1,3.501568567E1
3.389834384E0,-1.440418243E1,-2.507776260E1,1.223289585E1,3.140092976E1
3.394851727E0,-4.066874981E0,-2.641633224E1,7.174142456E1,7.655843572E1
3.399869071E0,3.131548405E0,-1.831367683E1,9.157082367E1,9.343667964E1
3.404886415E0,1.187276554E1,-1.214953518E1,1.091839905E2,1.104975907E2
3.409903759E0,1.572794724E1,-1.062833118E1,1.164179535E2,1.179553714E2
3.414921102E0,1.290512180E1,-8.747660637E0,1.114211731E2,1.125066289E2
3.419938446E0,1.267701721E1,-6.896275520E0,1.109804153E2,1.119147800E2
3.424955790E0,1.724509430E1,-5.208774090E0,1.049253998E2,1.064606224E2
3.429973134E0,2.155380058E1,-3.833037853E0,8.923571777E1,9.188183621E1
3.434990477E0,2.223767090E1,-2.307443619E0,7.441761017E1,7.770340408E1
3.440007821E0,1.855451393E1,-1.103679180E0,6.102350616E1,6.379150727E1
3.445025165E0,1.083249664E1,-2.123378992E0,4.570281601E1,4.701700876E1
3.450042509E0,9.510303736E-1,-4.930969715E0,3.034919548E1,3.076186905E1
3.455059852E0,-7.046615601E0,-7.932151794E0,1.710071182E1,2.012481474E1
3.460077196E0,-1.031110764E1,-9.387655258E0,7.795719147E0,1.597561420E1
3.465094540E0,-1.013993645E1,-8.854931831E0,3.258441925E0,1.385083292E1
3.470111884E0,-8.683420181E0,-7.759589672E0,5.844831467E-1,1.165995877E1
3.475129227E0,-7.242609501E0,-7.709589958E0,-3.002193451E0,1.099574169E1
3.480146571E0,-6.950924873E0,-8.356509209E0,-1.042913055E1,1.506364388E1
3.485163915E0,-8.237730980E0,-1.000077534E1,-2.044793320E1,2.420730656E1
3.490181259E0,-9.646512985E0,-1.221128559E1,-3.243726349E1,3.597703116E1
3.495198602E0,-1.136128616E1,-1.460288143E1,-4.594273376E1,4.952835304E1
3.500215946E0,-1.300118923E1,-1.700121117E1,-5.831344223E1,6.211706406E1
3.505233290E0,-1.330437374E1,-1.847979736E1,-6.781475067E1,7.153565321E1
3.510250634E0,-1.353345585E1,-1.937963104E1,-7.598712158E1,7.957868542E1
3.515267977E0,-1.294195938E1,-1.989647293E1,-8.206718445E1,8.543059587E1
3.520285321E0,-1.250563812E1,-2.078360939E1,-8.544387054E1,8.882006765E1
3.525302665E0,-1.216644287E1,-2.181538200E1,-8.576660919E1,8.932997524E1
3.530320009E0,-1.220555210E1,-2.273659515E1,-8.237203217E1,8.631963823E1
3.535337352E0,-1.273984051E1,-2.309120369E1,-7.539240265E1,7.987190746E1
3.540354696E0,-1.334285355E1,-2.288464737E1,-6.723572540E1,7.226604733E1
3.545372040E0,-1.380760193E1,-2.273381615E1,-5.979344940E1,6.544259209E1
3.550389384E0,-1.428563309E1,-2.349519348E1,-5.151042557E1,5.839030203E1
3.555406727E0,-1.510368061E1,-2.444245148E1,-4.549821854E1,5.381117442E1
3.560424071E0,-1.986484528E1,-2.396324921E1,-4.333432007E1,5.335459386E1
3.565441415E0,-2.101143456E1,-2.119806290E1,-2.745223618E1,4.055198545E1
3.570458759E0,-1.515690899E1,-1.939278793E1,-5.261306763E-1,2.461887340E1
3.575476102E0,-1.115627480E1,-2.142296982E1,2.926782417E1,3.794748523E1
3.580493446E0,-9.043981552E0,-2.431035805E1,6.637550354E1,7.126355717E1
3.585510790E0,6.911183596E-1,-2.317014313E1,9.776148987E1,1.004720960E2
3.590528134E0,1.020292377E1,-1.783981705E1,1.104415817E2,1.123374457E2
3.595545477E0,1.875463486E1,-1.329200745E1,1.257963791E2,1.278794072E2
3.600562821E0,2.535206032E1,-1.030155754E1,1.293792267E2,1.322415719E2
3.605580165E0,2.831375313E1,-7.615924358E0,1.195410843E2,1.230842872E2
3.610597509E0,2.721243095E1,-4.708911419E0,1.057724686E2,1.093183669E2
3.615614852E0,2.435954666E1,-2.931283474E0,8.857037354E1,9.190588123E1
3.620632196E0,2.192706871E1,-2.095358849E0,7.214557648E1,7.543322263E1
3.625649540E0,1.826125336E1,-2.842614889E0,5.862258148E1,6.146674624E1
3.630666884E0,1.317990398E1,-5.405000687E0,4.486389923E1,4.707115205E1
3.635684227E0,6.518709660E0,-9.295177460E0,2.947251320E1,3.158358646E1
3.640701571E0,-1.182711124E-1,-1.215114784E1,1.532414818E1,1.955745125E1
3.645718915E0,-4.447071552E0,-1.250336266E1,4.578868866E0,1.403839603E1
3.650736259E0,-5.884253979E0,-1.072941589E1,-3.326413155E0,1.268108177E1
3.655753602E0,-6.220046043E0,-8.308382034E0,-1.074723148E1,1.494058799E1
3.660770946E0,-7.481296539E0,-7.536365986E0,-1.982211304E1,2.248739148E1
3.665788290E0,-1.018466759E1,-8.590000153E0,-3.098349953E1,3.372673716E1
3.670805634E0,-1.399403572E1,-9.643470764E0,-4.518183517E1,4.827243306E1
3.675822977E0,-1.888111305E1,-1.030406761E1,-5.951464462E1,6.328240801E1
3.680840321E0,-2.325358772E1,-1.008601856E1,-7.271481323E1,7.700585157E1
3.685857665E0,-2.646299934E1,-8.935930252E0,-8.412212372E1,8.863787499E1
3.690875009E0,-2.927783966E1,-9.193866730E0,-9.309860229E1,9.802585797E1
3.695892352E0,-3.048318291E1,-9.834455490E0,-9.714979553E1,1.022938108E2
3.700909696E0,-2.929695511E1,-1.115887547E1,-9.843567657E1,1.033073787E2
3.705927040E0,-2.852155495E1,-1.173230743E1,-9.536074066E1,1.002237347E2
3.710944384E0,-2.945937538E1,-1.432408524E1,-8.684140778E1,9.281413858E1
3.715961727E0,-3.037012672E1,-1.754659081E1,-7.614573669E1,8.383555727E1
3.720979071E0,-2.952557182E1,-2.019238853E1,-6.251612473E1,7.202609108E1
3.725996415E0,-2.457676125E1,-2.216595840E1,-4.643983078E1,5.702635170E1
3.731013759E0,-1.663592148E1,-2.417799759E1,-3.312669373E1,4.425728514E1
3.736031102E0,-1.131105804E1,-2.859321976E1,-1.807889557E1,3.567013758E1
3.741048446E0,-6.234148979E0,-3.134416771E1,2.198712921E1,3.879117572E1
3.746065790E0,2.196891785E0,-3.149037743E1,6.919967651E1,7.605961763E1
3.751083134E0,1.182441711E1,-2.689464188E1,8.468248749E1,8.963404648E1
3.756100477E0,1.710446739E1,-2.031594467E1,9.857916260E1,1.020938378E2
3.761117821E0,1.661711311E1,-1.801939201E1,1.158112717E2,1.183768456E2
3.766135165E0,1.986209869E1,-1.372835827E1,1.178126526E2,1.202613483E2
3.771152509E0,2.336530876E1,-1.076112843E1,1.175296707E2,1.203119405E2
3.776169852E0,2.587528801E1,-1.025498581E1,1.105072250E2,1.139585102E2
3.781187196E0,2.597599411E1,-9.262874603E0,9.328145599E1,9.727272561E1
3.786204540E0,2.413288116E1,-7.499319553E0,7.571206665E1,7.981824844E1
3.791221884E0,2.077071381E1,-6.354342937E0,6.254804611E1,6.621222167E1
3.796239227E0,1.500684166E1,-5.908451557E0,4.872679138E1,5.132655545E1
3.801256571E0,7.314593315E0,-6.768720627E0,3.502562714E1,3.641584011E1
3.806273915E0,-5.282509327E-2,-9.202082634E0,2.218378258E1,2.401668846E1
3.811291259E0,-5.216038704E0,-1.124484539E1,1.112348652E1,1.665489598E1
3.816308602E0,-7.608440876E0,-1.182087708E1,3.993864059E0,1.461411843E1
3.821325946E0,-7.121191025E0,-9.949422836E0,-3.288733482E0,1.266957554E1
3.826343290E0,-6.925082207E0,-8.783620834E0,-1.050241756E1,1.534306140E1
3.831360634E0,-8.292510986E0,-8.965586662E0,-2.022985840E1,2.363037565E1
3.836377977E0,-1.123744202E1,-1.047944260E1,-3.359277344E1,3.694013058E1
3.841395321E0,-1.551137352E1,-1.247003937E1,-4.799263000E1,5.195572274E1
3.846412665E0,-1.990626907E1,-1.357986641E1,-6.327799225E1,6.771097860E1
3.851430009E0,-2.282167244E1,-1.393367767E1,-7.689807892E1,8.141431476E1
3.856447352E0,-2.321464157E1,-1.287357903E1,-8.722555542E1,9.117535927E1
3.861464696E0,-2.272117805E1,-1.225069046E1,-9.451410675E1,9.797575069E1
3.866482040E0,-2.278608131E1,-1.223756981E1,-9.826884460E1,1.016155964E2
3.871499384E0,-2.337691307E1,-1.335088158E1,-9.725551605E1,1.009126429E2
3.876516727E0,-2.362768173E1,-1.561363602E1,-9.205918121E1,9.631690308E1
3.881534071E0,-2.253519440E1,-1.817203712E1,-8.361121368E1,8.848103172E1
3.886551415E0,-1.951316261E1,-2.035459518E1,-7.010278320E1,7.556105659E1
3.891568759E0,-1.424288845E1,-2.200404358E1,-5.543795395E1,6.132213747E1
3.896586102E0,-1.163421726E1,-2.384384537E1,-4.550892258E1,5.267775629E1
3.901603446E0,-1.242745781E1,-2.757774734E1,-3.278038406E1,4.460411904E1
3.906620790E0,-8.836850166E0,-2.927187538E1,-5.197083473E0,3.101519443E1
3.911638134E0,-3.910188198E0,-3.186431694E1,3.756651688E1,4.941525530E1
3.916655477E0,-5.370025635E-1,-3.364280319E1,7.347879791E1,8.081621323E1
3.921672821E0,5.384974480E0,-2.927161789E1,9.025775909E1,9.503835352E1
3.926690165E0,9.352868080E0,-2.455938911E1,1.159047546E2,1.188467580E2
3.931707509E0,1.551757717E1,-1.993008232E1,1.277772064E2,1.302498286E2
3.936724852E0,2.137936974E1,-1.422071266E1,1.287246552E2,1.312605918E2
3.941742196E0,2.665114403E1,-9.678251266E0,1.232536392E2,1.264729679E2
3.946759540E0,2.820214653E1,-5.808088779E0,1.078944702E2,1.116705497E2
3.951776884E0,2.510112572E1,-4.736526012E0,8.831931305E1,9.193912251E1
3.956794227E0,1.803304672E1,-5.192600250E0,7.312686157E1,7.549630292E1
3.961811571E0,1.100418472E1,-5.555335045E0,5.938857651E1,6.065440502E1
3.966828915E0,5.378561974E0,-7.036641121E0,4.454931641E1,4.542119373E1
3.971846259E0,-1.638433695E0,-1.061920738E1,2.826903152E1,3.024219195E1
3.976863602E0,-7.699783802E0,-1.413448048E1,1.574599743E1,2.251680803E1
3.981880946E0,-9.885797501E0,-1.475691891E1,7.598035812E0,1.931905267E1
3.986898290E0,-9.358233452E0,-1.287393475E1,2.381927490E0,1.609311367E1
3.991915634E0,-9.407333374E0,-1.014729881E1,-4.899138927E0,1.467879956E1
3.996932977E0,-1.116880226E1,-1.086993599E1,-1.399420547E1,2.094601249E1
4.001950321E0,-1.337292767E1,-1.426319504E1,-2.664901733E1,3.305214141E1
4.006967665E0,-1.449261189E1,-1.739553452E1,-4.187917709E1,4.760783438E1
4.011985009E0,-1.602934837E1,-2.054534912E1,-5.788257217E1,6.347789805E1
4.017002352E0,-1.640363503E1,-2.190905952E1,-7.064521790E1,7.576168519E1
4.022019696E0,-1.542705250E1,-2.072752762E1,-8.132830048E1,8.533414796E1
4.027037040E0,-1.474255753E1,-1.915644073E1,-9.072471619E1,9.388975637E1
4.032054384E0,-1.431856441E1,-1.859028625E1,-9.718610382E1,9.997879178E1
4.037071727E0,-1.339467049E1,-1.810363579E1,-1.011198196E2,1.035971851E2
4.042089071E0,-1.385952950E1,-1.789890862E1,-1.011850128E2,1.036863747E2
4.047106415E0,-1.813808632E1,-2.004299164E1,-9.773950958E1,1.014086950E2
4.052123759E0,-1.938157463E1,-2.290267944E1,-8.773252106E1,9.272094376E1
4.057141102E0,-1.364138126E1,-2.463133812E1,-7.054404449E1,7.595559436E1
4.062158446E0,-6.343043804E0,-2.674169540E1,-5.476100540E1,6.127087555E1
4.067175842E0,-6.191307068E0,-2.901042175E1,-4.557097244E1,5.437508973E1
4.072193238E0,-1.071047592E1,-3.155075455E1,-3.675332642E1,4.960817886E1
4.077210634E0,-9.028937340E0,-3.184494019E1,-2.067407036E1,3.902613368E1
4.082228029E0,-5.805315495E0,-3.423740005E1,2.284355164E-1,3.472684024E1
4.087245425E0,-1.549694538E0,-3.875707626E1,3.548993683E1,5.257421545E1
4.092262821E0,4.729747295E0,-3.825037766E1,7.293074799E1,8.248851982E1
4.097280217E0,9.114858627E0,-3.240383911E1,8.921326447E1,9.535248289E1
4.102297613E0,1.381662369E1,-2.707578850E1,1.080296860E2,1.122248211E2
4.107315009E0,1.524032974E1,-2.386461449E1,1.200139618E2,1.233091177E2
4.112332404E0,1.562266731E1,-1.869924736E1,1.189472275E2,1.214173485E2
4.117349800E0,1.944553757E1,-1.233489418E1,1.126836700E2,1.150125560E2
4.122367196E0,2.047832870E1,-5.784211636E0,9.725127411E1,9.955214396E1
4.127384592E0,1.888812447E1,-2.910740376E0,7.934252930E1,8.161170633E1
4.132401988E0,1.660556030E1,-5.004456997E0,5.966950989E1,6.213887377E1
4.137419384E0,1.190605927E1,-7.903553963E0,4.502979279E1,4.724301695E1
4.142436779E0,7.738150597E0,-8.957480431E0,3.276309204E1,3.483583830E1
4.147454175E0,5.165987968E0,-7.592912197E0,2.238241386E1,2.419322628E1
4.152471571E0,2.752285957E0,-6.044669628E0,1.332299805E1,1.488675203E1
4.157488967E0,4.137889147E-1,-6.100035667E0,3.666605949E0,7.129211429E0
4.162506363E0,-6.583671570E-1,-7.532080650E0,-6.441958427E0,9.933001289E0
4.167523759E0,-4.344395995E-1,-8.867042542E0,-1.539580441E1,1.777199973E1
4.172541154E0,-1.304066420E0,-9.439022064E0,-2.054118347E1,2.264367340E1
4.177558550E0,-3.526724577E0,-6.544212341E0,-3.311504745E1,3.393922317E1
4.182575946E0,-8.374174118E0,-4.087754726E0,-4.656551361E1,4.748877329E1
4.187593342E0,-1.484337044E1,-6.283099174E0,-5.702265549E1,5.925695082E1
4.192610738E0,-1.783555794E1,-8.184547424E0,-6.518525696E1,6.807504439E1
4.197628134E0,-1.711423874E1,-8.717825890E0,-7.321472931E1,7.569210159E1
4.202645529E0,-1.407049561E1,-8.692930222E0,-7.971724701E1,8.141489638E1
4.207662925E0,-1.213174725E1,-8.707181931E0,-8.304753113E1,8.437942128E1
4.212680321E0,-1.127934742E1,-8.850533485E0,-8.187598419E1,8.312179262E1
4.217697665E0,-1.045044041E1,-9.345208168E0,-7.568364716E1,7.697115737E1
4.222715009E0,-9.420069695E0,-1.002140522E1,-6.404199219E1,6.550223690E1
4.227732352E0,-7.822001457E0,-1.076912212E1,-4.648063660E1,4.834880843E1
4.232749696E0,-6.332329750E0,-1.224556255E1,-2.261079788E1,2.648207664E1
4.237767040E0,-6.227572441E0,-1.287760735E1,4.938913345E0,1.513302001E1
4.242784384E0,-2.924926996E0,-1.189157677E1,3.268734360E1,3.490597696E1
4.247801727E0,4.286095142E0,-6.655944824E0,4.495788956E1,4.564957882E1
4.252819071E0,9.268719673E0,-2.451343536E0,5.374985886E1,5.459821954E1
4.257836415E0,1.037314606E1,-2.925110102E0,6.376136780E1,6.466583682E1
4.262853759E0,9.228403091E0,-4.495660782E0,6.927568817E1,7.003210236E1
4.267871102E0,9.832941055E0,-4.866965294E0,7.252999115E1,7.335512046E1
4.272888446E0,1.220969772E1,-5.201648235E0,7.190925598E1,7.312369629E1
4.277905790E0,1.362536812E1,-5.475014687E0,6.335707855E1,6.503649625E1
4.282923134E0,1.356356239E1,-5.226649761E0,5.219377899E1,5.418005775E1
4.287940477E0,1.344060707E1,-4.407993793E0,4.233092117E1,4.463168398E1
4.292957821E0,1.256498146E1,-3.208222628E0,3.360285950E1,3.601837889E1
4.297975165E0,1.074055862E1,-3.449734688E0,2.520807266E1,2.761715402E1
4.302992509E0,8.393804550E0,-4.610004902E0,1.644082642E1,1.902653077E1
4.308009852E0,5.122081757E0,-5.441700935E0,7.570683479E0,1.063781364E1
4.313027196E0,2.039620161E0,-5.873878479E0,-1.163259506E0,6.325794137E0
4.318044540E0,-8.598610163E-1,-6.093509197E0,-9.403963089E0,1.123853803E1
4.323061884E0,-3.026360989E0,-5.705102444E0,-1.696311760E1,1.815087914E1
4.328079227E0,-4.496975899E0,-4.697530746E0,-2.374429321E1,2.461871336E1
4.333096571E0,-5.977636337E0,-3.845940113E0,-2.935551834E1,3.020380520E1
4.338113915E0,-7.539330006E0,-3.391228437E0,-3.363005447E1,3.463123577E1
4.343131259E0,-8.739212036E0,-3.050746441E0,-3.641493225E1,3.757297129E1
4.348148602E0,-9.307270050E0,-2.678530455E0,-3.740831757E1,3.864171353E1
4.353165946E0,-9.267732620E0,-2.006639957E0,-3.725982666E1,3.844752469E1
4.358183290E0,-9.156736374E0,-1.390003920E0,-3.583309174E1,3.701065246E1
4.363200634E0,-9.546930313E0,-1.036931396E0,-3.257957458E1,3.396539099E1
4.368217977E0,-1.012815094E1,-8.708623648E-1,-2.808795929E1,2.987091059E1
4.373235321E0,-9.963086128E0,-1.069924235E0,-2.265325928E1,2.477050623E1
4.378252665E0,-8.908172607E0,-1.185368061E0,-1.584810638E1,1.821875716E1
4.383270009E0,-6.883453846E0,-9.500278234E-1,-7.901617050E0,1.052235913E1
4.388287352E0,-4.357429981E0,-8.107603788E-1,1.602924347E0,4.713161879E0
4.393304696E0,-2.308717012E0,-1.107210279E0,1.273299313E1,1.298788677E1
4.398322040E0,-1.421557665E-1,-1.416264772E0,2.400196838E1,2.404413651E1
4.403339384E0,2.716933012E0,-9.796093702E-1,3.275266647E1,3.287975852E1
4.408356727E0,6.005522251E0,5.007054806E-1,3.760206223E1,3.808191286E1
4.413374071E0,8.403968811E0,1.724943399E0,3.859789276E1,3.953984632E1
4.418391415E0,9.028843880E0,1.221356153E0,3.664361191E1,3.775931708E1
4.423408759E0,8.935510635E0,-9.001970291E-2,3.310493851E1,3.428977118E1
4.428426102E0,8.694690704E0,-7.034311295E-1,2.889583588E1,3.018380017E1
4.433443446E0,8.547519684E0,-4.636566639E-1,2.485305023E1,2.628591212E1
4.438460790E0,8.374202728E0,-1.810932159E-2,2.087651062E1,2.249347227E1
4.443478134E0,7.261992931E0,5.922517776E-1,1.651794815E1,1.805352915E1
4.448495477E0,4.887801170E0,7.190146446E-1,1.249604034E1,1.343720978E1
4.453512821E0,2.539380550E0,8.764076233E-2,8.810305595E0,9.169384885E0
4.458530165E0,7.191374302E-1,-4.809079170E-1,5.722691536E0,5.787713666E0
4.463547509E0,-6.651558280E-1,-7.224595547E-1,2.920545578E0,3.081228092E0
4.468564852E0,-2.053765535E0,-8.757193089E-1,-1.765689850E-1,2.239645907E0
4.473582196E0,-3.447118282E0,-9.535546303E-1,-3.775921822E0,5.200911121E0
4.478599540E0,-4.508537292E0,-9.394164085E-1,-7.587404251E0,8.875703633E0
4.483616884E0,-5.134689331E0,-8.025193214E-1,-1.152656364E1,1.264400021E1
4.488634227E0,-5.437514305E0,-5.890605450E-1,-1.552242184E1,1.645779857E1
4.493651571E0,-5.814052582E0,-3.751270771E-1,-1.944553566E1,2.029957598E1
4.498668915E0,-6.359920502E0,-6.244852543E-1,-2.398880768E1,2.482541972E1
4.503686259E0,-7.220466137E0,-1.343578339E0,-2.993653107E1,3.082427982E1
4.508703602E0,-8.999944687E0,-1.970160484E0,-3.681700897E1,3.795224218E1
4.513720946E0,-1.099908733E1,-2.266305685E0,-4.270167542E1,4.415369913E1
4.518738290E0,-1.194669724E1,-2.207701445E0,-4.665286255E1,4.820878659E1
4.523755634E0,-1.204772186E1,-2.205342770E0,-4.876441193E1,5.027901162E1
4.528772977E0,-1.180984879E1,-2.683461428E0,-4.940974426E1,5.087235322E1
4.533790321E0,-1.180239487E1,-3.665375233E0,-4.866448212E1,5.020919557E1
4.538807665E0,-1.209024906E1,-4.662559509E0,-4.646574783E1,4.823877388E1
4.543825009E0,-1.202585125E1,-5.329506397E0,-4.320537186E1,4.516335787E1
4.548842352E0,-1.099027920E1,-5.644251823E0,-3.929943466E1,4.119574469E1
4.553859696E0,-9.177652359E0,-5.786201477E0,-3.486208344E1,3.651128992E1
4.558877040E0,-7.597573757E0,-6.189949036E0,-3.016398621E1,3.171600006E1
4.563894384E0,-7.149255276E0,-7.136790752E0,-2.374419403E1,2.580372809E1
4.568911727E0,-5.140504837E0,-8.353807449E0,-2.579201698E0,1.014214821E1
4.573929071E0,-9.439069033E-1,-9.421612740E0,3.095732880E1,3.237304362E1
4.578946415E0,3.768407583E0,-9.394306183E0,4.221785355E1,4.341429537E1
4.583963759E0,7.222358227E0,-8.145758629E0,4.830885315E1,4.952031032E1
4.588981102E0,8.566424370E0,-4.585649967E0,6.169606781E1,6.245651764E1
4.593998446E0,8.444517136E0,-3.214795113E0,7.071966553E1,7.129457111E1
4.599015790E0,8.353139877E0,-2.851392984E0,7.210349274E1,7.264171703E1
4.604033134E0,9.958685875E0,-3.136245728E0,7.333176422E1,7.407131095E1
4.609050477E0,1.120400143E1,-4.060208321E0,7.004199219E1,7.104854403E1
4.614067821E0,1.073688984E1,-4.381778717E0,6.080600739E1,6.190194926E1
4.619085165E0,1.191834641E1,-3.020145655E0,5.080222321E1,5.226886400E1
4.624102509E0,1.287678337E1,-4.558499455E-1,4.381210709E1,4.566749475E1
4.629119852E0,1.175225067E1,1.182402611E0,3.813714600E1,3.992437071E1
4.634137196E0,8.361896515E0,8.766462803E-1,3.146771049E1,3.257156161E1
4.639154540E0,4.019278049E0,-4.950291514E-1,2.413560486E1,2.447298657E1
4.644171884E0,-2.278464437E-1,-2.696056843E0,1.714636993E1,1.735853215E1
4.649189227E0,-3.216999054E0,-4.673115730E0,1.189685249E1,1.318037150E1
4.654206571E0,-4.713402748E0,-5.080503941E0,8.194164276E0,1.073182249E1
4.659223915E0,-4.943823338E0,-4.550332069E0,5.194472313E0,8.492906084E0
4.664241259E0,-5.008046627E0,-4.526563168E0,2.035075188E0,7.050662107E0
4.669258602E0,-5.107047081E0,-5.273559570E0,-1.944898605E0,7.594405244E0
4.674275946E0,-5.196909904E0,-5.877919674E0,-7.170661449E0,1.062902620E1
4.679293290E0,-4.696105957E0,-5.819263458E0,-1.388440609E1,1.577003395E1
4.684310634E0,-4.119702339E0,-5.547712326E0,-2.140542984E1,2.249314309E1
4.689327977E0,-6.355147362E0,-6.367188454E0,-2.933212662E1,3.068065577E1
4.694345321E0,-8.370834351E0,-7.201395035E0,-3.797723389E1,3.954998422E1
4.699362665E0,-9.481481552E0,-7.233579636E0,-4.601920319E1,4.753935452E1
4.704380009E0,-9.927621841E0,-6.954406738E0,-5.263724136E1,5.401481859E1
4.709397352E0,-9.475069046E0,-6.946879387E0,-5.748592377E1,5.867424902E1
4.714414696E0,-9.921185493E0,-6.805829048E0,-6.100897598E1,6.218395598E1
4.719432040E0,-1.054200745E1,-7.223794937E0,-6.297407532E1,6.425769445E1
4.724449384E0,-1.098356724E1,-8.104618073E0,-6.390829849E1,6.534978347E1
4.729466727E0,-1.117011929E1,-9.122999191E0,-6.417794037E1,6.577848211E1
4.734484071E0,-1.089642048E1,-9.968612671E0,-6.249170685E1,6.421307221E1
4.739501415E0,-1.038926792E1,-1.062943459E1,-5.887273026E1,6.072001429E1
4.744518759E0,-9.702281952E0,-1.143946266E1,-5.370970154E1,5.576493182E1
4.749536102E0,-9.231134415E0,-1.241876602E1,-4.705431747E1,4.953330582E1
4.754553446E0,-9.034692764E0,-1.346367359E1,-4.020693207E1,4.335312637E1
4.759570790E0,-8.390898705E0,-1.411971855E1,-3.332096481E1,3.714916324E1
4.764588134E0,-7.706686497E0,-1.506939316E1,-2.846608353E1,3.311793379E1
4.769605477E0,-8.671292305E0,-1.719536400E1,-2.295099831E1,2.996031002E1
4.774622821E0,-4.233574390E0,-1.732831192E1,6.968832970E0,1.915093155E1
4.779640165E0,-2.574458718E-2,-1.711337662E1,4.586253738E1,4.895141119E1
4.784657509E0,2.286004543E0,-1.477639771E1,5.948117828E1,6.133170726E1
4.789674852E0,3.829286337E0,-8.612861633E0,6.912767029E1,6.976732487E1
4.794692196E0,2.915381670E0,-6.803550720E0,8.600868225E1,8.632659599E1
4.799709540E0,3.316987514E0,-4.888291836E0,9.057910919E1,9.077154193E1
4.804726884E0,5.183485508E0,-2.810526848E0,9.347885132E1,9.366463168E1
4.809744227E0,9.745165825E0,-3.942380667E0,9.443203735E1,9.501536876E1
4.814761571E0,1.192995644E1,-7.308166504E0,8.403518677E1,8.519181753E1
4.819778915E0,1.221957397E1,-9.848872185E0,6.869447327E1,7.046452248E1
4.824796259E0,1.240099049E1,-8.379451752E0,5.687207794E1,5.880844349E1
4.829813602E0,1.347182846E1,-4.927491665E0,4.963705826E1,5.166824836E1
4.834830946E0,1.245359230E1,-2.588207245E0,4.506839371E1,4.682895354E1
4.839848290E0,8.508575439E0,-2.538701296E0,3.940665054E1,4.039461557E1
4.844865634E0,4.388211727E0,-4.037337303E0,3.079111671E1,3.136318484E1
4.849882977E0,1.161522985E0,-6.656705856E0,2.125086594E1,2.229933119E1
4.854900321E0,-1.721417785E0,-9.155596733E0,1.217510700E1,1.533040969E1
4.859917665E0,-4.016381264E0,-1.083074856E1,5.538748741E0,1.281070530E1
4.864935009E0,-4.760452271E0,-1.056043339E1,6.232261658E-2,1.158397787E1
4.869952352E0,-5.134375572E0,-8.531761169E0,-5.593786716E0,1.142117380E1
4.874969696E0,-6.034428596E0,-6.958005905E0,-1.196882057E1,1.510234553E1
4.879987040E0,-6.923418045E0,-6.555459976E0,-1.957800674E1,2.177627427E1
4.885004384E0,-7.728657722E0,-6.946264267E0,-2.852134705E1,3.035539449E1
4.890021727E0,-8.398028374E0,-7.740580559E0,-3.862870026E1,4.028175706E1
4.895039071E0,-9.367191315E0,-8.599566460E0,-4.916909790E1,5.078677982E1
4.900056415E0,-1.038938808E1,-8.745363235E0,-5.895579147E1,6.049963728E1
4.905073759E0,-1.115897274E1,-8.360414505E0,-6.727703857E1,6.870676184E1
4.910091102E0,-1.135314369E1,-7.515215397E0,-7.264253998E1,7.390744853E1
4.915108446E0,-1.112995243E1,-6.720536232E0,-7.555612183E1,7.666660938E1
4.920125790E0,-1.082250786E1,-6.930165291E0,-7.640744781E1,7.748065532E1
4.925143134E0,-1.076127529E1,-7.864754677E0,-7.539111328E1,7.656029894E1
4.930160477E0,-1.081569290E1,-9.025852203E0,-7.248806000E1,7.384418774E1
4.935177821E0,-1.054731750E1,-1.032261276E1,-6.770535278E1,6.929514439E1
4.940195165E0,-9.874718666E0,-1.155012703E1,-6.169835281E1,6.354212967E1
4.945212509E0,-9.288308144E0,-1.245639229E1,-5.423097229E1,5.641305463E1
4.950229852E0,-8.200476646E0,-1.333611870E1,-4.579914856E1,4.840105255E1
4.955247196E0,-8.554793358E0,-1.464945030E1,-3.870273209E1,4.225745324E1
4.960264540E0,-1.039118576E1,-1.669144058E1,-3.309957123E1,3.849886421E1
4.965281884E0,-1.286194038E1,-1.910646439E1,-2.613519478E1,3.483582779E1
4.970299227E0,-8.650083542E0,-1.875050163E1,6.387200356E0,2.161484641E1
4.975316571E0,-4.377140522E0,-1.865742874E1,5.060909653E1,5.411598338E1
4.980333915E0,-2.035468578E0,-1.770548820E1,7.020462799E1,7.243146579E1
4.985351259E0,4.218424320E0,-9.648353577E0,7.761840820E1,7.832945246E1
4.990368654E0,6.318455696E0,-6.567461014E0,9.344496155E1,9.388831272E1
4.995386050E0,7.880856514E0,-5.065514565E0,9.725308228E1,9.770327195E1
5.000403446E0,7.693611145E0,-4.303154945E0,1.011652527E2,1.015485950E2
5.005420842E0,9.889575958E0,-6.056610107E0,1.032077789E2,1.038572668E2
5.010438238E0,1.146381474E1,-7.891070366E0,9.208970642E1,9.313539643E1
5.015455634E0,1.195812035E1,-7.270968914E0,7.583129883E1,7.711192847E1
5.020473029E0,1.239930439E1,-3.976499557E0,6.240667343E1,6.375067205E1
5.025490425E0,1.276998329E1,-7.887225151E-1,5.312477112E1,5.464371751E1
5.030507821E0,1.050075722E1,-1.331949234E-1,4.596572495E1,4.715009558E1
5.035525217E0,6.191054821E0,-1.810891509E0,3.750680542E1,3.805744264E1
5.040542613E0,2.213741541E0,-5.062994480E0,2.772936630E1,2.827458789E1
5.045560009E0,-1.089298248E0,-8.701371193E0,1.770339775E1,1.975628313E1
5.050577404E0,-3.369187593E0,-1.101102734E1,9.155383110E0,1.471105666E1
5.055594800E0,-4.782164097E0,-1.168655777E1,2.206584930E0,1.281849223E1
5.060612196E0,-5.272336960E0,-1.172238350E1,-4.796122074E0,1.371913258E1
5.065629592E0,-5.310795784E0,-1.118299675E1,-1.374777699E1,1.850041460E1
5.070646988E0,-6.130363464E0,-1.058889580E1,-2.461967468E1,2.749244354E1
5.075664384E0,-8.032743454E0,-1.038062286E1,-3.696428680E1,3.922551207E1
5.080681779E0,-9.147448540E0,-1.014494324E1,-4.947199249E1,5.132322797E1
5.085699175E0,-9.076496124E0,-9.452108383E0,-6.020574188E1,6.161539167E1
5.090716571E0,-8.638290405E0,-8.491469383E0,-6.723979187E1,6.832213934E1
5.095733967E0,-8.639212608E0,-7.358575344E0,-7.119693756E1,7.209569019E1
5.100751363E0,-8.899565697E0,-6.316245079E0,-7.265321350E1,7.346826971E1
5.105768759E0,-1.038434887E1,-5.940381050E0,-7.268360901E1,7.366159004E1
5.110786154E0,-1.284224987E1,-5.974357605E0,-7.192929077E1,7.331056678E1
5.115803550E0,-1.536929131E1,-6.313708305E0,-7.001103210E1,7.195569918E1
5.120820946E0,-1.756980896E1,-6.599498749E0,-6.680791473E1,6.939415712E1
5.125838342E0,-1.823605919E1,-7.228209496E0,-6.189732361E1,6.493134480E1
5.130855738E0,-1.744982910E1,-8.099244118E0,-5.546797943E1,5.870937773E1
5.135873081E0,-1.571317291E1,-9.213251114E0,-4.855812836E1,5.186212133E1
5.140890425E0,-1.350441837E1,-1.061894417E1,-4.069829941E1,4.417559129E1
5.145907769E0,-9.857061386E0,-1.193685913E1,-3.095178604E1,3.460727271E1
5.150925113E0,-8.492950439E0,-1.323161030E1,-2.365437698E1,2.840308555E1
5.155942456E0,-9.151552200E0,-1.613776779E1,-1.427701569E1,2.340964831E1
5.160959800E0,-4.190404892E0,-1.739520836E1,2.339508438E1,2.945305995E1
5.165977144E0,2.406694412E0,-1.708828735E1,5.701613235E1,5.957047164E1
5.170994488E0,8.664423943E0,-1.349737740E1,6.284855652E1,6.486287455E1
5.176011831E0,7.438239574E0,-8.812363625E0,6.731964874E1,6.830022158E1
5.181029175E0,5.368060112E0,-7.839914322E0,8.040394592E1,8.096341671E1
5.186046519E0,5.501440048E0,-7.223339558E0,8.463974762E1,8.512537433E1
5.191063863E0,7.245107651E0,-5.466788292E0,8.923547363E1,8.969585895E1
5.196081206E0,1.012286663E1,-4.434535980E0,9.389753723E1,9.454567698E1
5.201098550E0,1.107216167E1,-4.973914146E0,8.619720459E1,8.704763446E1
5.206115894E0,9.981603622E0,-5.408692837E0,7.168362427E1,7.257705117E1
5.211133238E0,9.931629181E0,-3.651642323E0,5.949080658E1,6.042456303E1
5.216150581E0,1.051404285E1,-1.421399117E-1,5.095210266E1,5.202578271E1
5.221167925E0,8.795183182E0,1.974029064E0,4.371822739E1,4.463782526E1
5.226185269E0,5.287116528E0,1.293481469E0,3.525217819E1,3.566991397E1
5.231202613E0,1.005346060E0,-1.919725299E0,2.606567764E1,2.615560393E1
5.236219956E0,-2.633751392E0,-5.584220409E0,1.740836716E1,1.847082594E1
5.241237300E0,-4.641123772E0,-8.126953125E0,1.020039940E1,1.384324907E1
5.246254644E0,-5.540013313E0,-9.250843048E0,3.887416840E0,1.146219239E1
5.251271988E0,-6.161360264E0,-9.376374245E0,-2.216244698E0,1.143636720E1
5.256289331E0,-6.572383881E0,-9.211074829E0,-9.085249901E0,1.451144015E1
5.261306675E0,-7.277756214E0,-9.306196213E0,-1.775939178E1,2.132995593E1
5.266324019E0,-8.311136246E0,-9.728712082E0,-2.750031281E1,3.033133741E1
5.271341363E0,-9.322024345E0,-1.013102531E1,-3.747409058E1,3.992299183E1
5.276358706E0,-1.005272675E1,-1.034776020E1,-4.800264740E1,5.012372306E1
5.281376050E0,-1.007823753E1,-1.047293377E1,-5.825616837E1,6.004193839E1
5.286393394E0,-9.707858086E0,-1.013525391E1,-6.693245697E1,6.838800828E1
5.291410738E0,-9.867490768E0,-9.326023102E0,-7.364408875E1,7.488520473E1
5.296428081E0,-1.078922367E1,-8.838143349E0,-7.767831421E1,7.892047024E1
5.301445425E0,-1.181922245E1,-9.131252289E0,-7.929740143E1,8.069170751E1
5.306462769E0,-1.249704170E1,-9.967871666E0,-7.877069092E1,8.037634145E1
5.311480113E0,-1.287317848E1,-1.042757225E1,-7.677581787E1,7.854284943E1
5.316497456E0,-1.357561111E1,-1.096386051E1,-7.253285980E1,7.460240751E1
5.321514800E0,-1.420864964E1,-1.265741730E1,-6.606256104E1,6.874851204E1
5.326532144E0,-1.406551361E1,-1.457621765E1,-5.779864502E1,6.124531133E1
5.331549488E0,-1.177253342E1,-1.576261902E1,-4.740876007E1,5.132877587E1
5.336566831E0,-1.017478848E1,-1.635134697E1,-3.627453613E1,4.106987752E1
5.341584175E0,-1.323729324E1,-1.826526260E1,-2.869472122E1,3.649976406E1
5.346601519E0,-1.428507137E1,-2.115050125E1,-1.119206619E1,2.786878743E1
5.351618863E0,-8.117093086E0,-2.047077751E1,3.209487152E1,3.892326695E1
5.356636206E0,-4.481922150E0,-1.953348160E1,6.899650574E1,7.184818949E1
5.361653550E0,-8.325876594E-1,-1.368004799E1,7.776026917E1,7.895882709E1
5.366670894E0,2.926112652E0,-7.267662525E0,8.977748108E1,9.011868376E1
5.371688238E0,6.784527779E0,-5.674662113E0,1.034477844E2,1.038252171E2
5.376705581E0,1.102852631E1,-2.948992014E0,1.059182053E2,1.065316439E2
5.381722925E0,1.212447166E1,-1.950962782E0,1.064993668E2,1.072050567E2
5.386740269E0,1.234269524E1,-3.763185978E0,9.962533569E1,1.004575095E2
5.391757613E0,1.432769489E1,-5.022714138E0,8.635688782E1,8.768136958E1
5.396774956E0,1.754260063E1,-3.979361296E0,7.147016144E1,7.369913249E1
5.401792300E0,1.872122955E1,-1.417482972E0,6.059889984E1,6.344068376E1
5.406809644E0,1.573015022E1,-2.422705889E-1,5.076852417E1,5.315015868E1
5.411826988E0,1.053050995E1,-2.391295195E0,4.111259842E1,4.250712506E1
5.416844331E0,4.490877151E0,-6.137269020E0,3.141817474E1,3.232546601E1
5.421861675E0,-7.288395762E-1,-9.127360344E0,2.189338303E1,2.373099522E1
5.426879019E0,-4.021794319E0,-1.068270016E1,1.353286362E1,1.770404784E1
5.431896363E0,-6.204128265E0,-1.157894707E1,6.543371201E0,1.467579400E1
5.436913706E0,-8.147798538E0,-1.229903412E1,-1.267642975E-1,1.475360737E1
5.441931050E0,-9.763098717E0,-1.282207489E1,-7.396301270E0,1.773214520E1
5.446948394E0,-1.075230694E1,-1.309948635E1,-1.541900539E1,2.291188282E1
5.451965738E0,-1.152103424E1,-1.382662678E1,-2.511105919E1,3.089458094E1
5.456983081E0,-1.234178352E1,-1.496644974E1,-3.580940628E1,4.072625463E1
5.462000425E0,-1.325835228E1,-1.621290016E1,-4.763614655E1,5.203695316E1
5.467017769E0,-1.410661316E1,-1.681058693E1,-5.941128540E1,6.333477087E1
5.472035113E0,-1.472965813E1,-1.645738411E1,-6.969064331E1,7.310673078E1
5.477052456E0,-1.543624115E1,-1.555860615E1,-7.719043732E1,8.024158136E1
5.482069800E0,-1.678803253E1,-1.476311493E1,-8.130080414E1,8.431849354E1
5.487087144E0,-1.729136658E1,-1.512931061E1,-8.256135559E1,8.569868631E1
5.492104488E0,-1.631950569E1,-1.623485184E1,-8.182232666E1,8.499876364E1
5.497121831E0,-1.690124512E1,-1.580121899E1,-8.076074219E1,8.400969043E1
5.502139175E0,-1.622018242E1,-1.637257195E1,-7.690932465E1,8.028822857E1
5.507156519E0,-1.500307083E1,-1.800875473E1,-7.157671356E1,7.531688593E1
5.512173863E0,-1.405189419E1,-1.979452705E1,-6.456048584E1,6.897343955E1
5.517191206E0,-1.315463257E1,-2.144319534E1,-5.557199860E1,6.100083616E1
5.522208550E0,-1.268231010E1,-2.302702713E1,-4.401495361E1,5.126793452E1
5.527225894E0,-1.199490452E1,-2.400054169E1,-3.020544052E1,4.040139073E1
5.532243238E0,-1.185146141E1,-2.398867798E1,-1.644409180E1,3.140576323E1
5.537260581E0,-1.490200806E1,-2.432846069E1,3.476891518E0,2.874078319E1
5.542277925E0,-1.514085293E1,-2.393028831E1,4.026612091E1,4.922666574E1
5.547295269E0,-1.387356949E1,-2.145092010E1,7.978675079E1,8.377674800E1
5.552312613E0,-5.918657780E0,-1.447475815E1,1.092640839E2,1.103774848E2
5.557329956E0,4.611621857E0,-5.404569149E0,1.141438904E2,1.143647854E2
5.562347300E0,1.409493542E1,7.773815393E-1,1.152174301E2,1.160789719E2
5.567364644E0,1.857895279E1,1.719871283E0,1.143178558E2,1.158305124E2
5.572381988E0,1.978619957E1,1.940778494E-1,1.084363937E2,1.102269606E2
5.577399331E0,2.313555717E1,-5.169357061E-1,9.840239716E1,1.010868587E2
5.582416675E0,2.603384399E1,3.951244950E-1,8.697660828E1,9.079012911E1
5.587434019E0,2.622393036E1,1.810089231E0,7.474681854E1,7.923419608E1
5.592451363E0,2.174025345E1,1.270068169E0,6.129134369E1,6.504521892E1
5.597468706E0,1.267238045E1,-2.311692238E0,4.707677460E1,4.880733402E1
5.602486050E0,1.850201011E0,-6.780171394E0,3.193001556E1,3.269433991E1
5.607503394E0,-7.264537811E0,-9.339915276E0,1.782461548E1,2.139449565E1
5.612520738E0,-1.199950123E1,-9.675189018E0,6.876968384E0,1.687868497E1
5.617538081E0,-1.294442463E1,-8.228697777E0,-3.066034317E-1,1.534156451E1
5.622555425E0,-1.255250168E1,-7.047205925E0,-5.772654533E0,1.550973727E1
5.627572769E0,-1.196133518E1,-7.838582516E0,-1.299133778E1,1.932076014E1
5.632590113E0,-1.194617653E1,-9.905068398E0,-2.333777809E1,2.802629836E1
5.637607456E0,-1.268278408E1,-1.242980385E1,-3.610485840E1,4.023572835E1
5.642624800E0,-1.409167385E1,-1.536369514E1,-5.056581116E1,5.469478639E1
5.647642144E0,-1.481530285E1,-1.733553886E1,-6.414408875E1,6.807700219E1
5.652659488E0,-1.449655914E1,-1.752467728E1,-7.543138123E1,7.878551780E1
5.657676831E0,-1.362895107E1,-1.716392517E1,-8.373316956E1,8.655398499E1
5.662694175E0,-1.311970711E1,-1.713941193E1,-8.946413422E1,9.203106794E1
5.667711519E0,-1.267052269E1,-1.753885269E1,-9.305089569E1,9.553335903E1
5.672728863E0,-1.211754799E1,-1.784448433E1,-9.386673737E1,9.631316096E1
5.677746206E0,-1.049165344E1,-1.905917549E1,-9.075534821E1,9.332663173E1
5.682763550E0,-9.148320198E0,-2.139358711E1,-8.458131409E1,8.772329237E1
5.687780894E0,-8.641790390E0,-2.346120453E1,-7.551160431E1,7.954313952E1
5.692798238E0,-7.977328300E0,-2.487224197E1,-6.446828461E1,6.955879461E1
5.697815581E0,-7.614614010E0,-2.579475212E1,-5.364751816E1,6.001173042E1
5.702832925E0,-6.960533142E0,-2.568161964E1,-4.187550354E1,4.961403436E1
5.707850269E0,-7.299352646E0,-2.597556686E1,-2.877047729E1,3.944300935E1
5.712867613E0,-9.355152130E0,-2.657554436E1,-1.728713226E1,3.305485397E1
5.717884956E0,-1.206579494E1,-2.594340134E1,2.915856361E0,2.876014080E1
5.722902300E0,-9.367185593E0,-2.433418655E1,3.996653748E1,4.772023595E1
5.727919644E0,-7.584034443E0,-2.219100380E1,7.874253845E1,8.216048679E1
5.732936988E0,-4.685053349E0,-1.557292843E1,1.026574249E2,1.039375424E2
5.737954331E0,-1.331614733E0,-8.513066292E0,1.089573441E2,1.092975220E2
5.742971675E0,7.334802151E0,-5.537098885E0,1.176416245E2,1.180000449E2
5.747989019E0,1.273902512E1,-4.594460487E0,1.175074387E2,1.182852060E2
5.753006363E0,1.639950943E1,-4.562108517E0,1.121425858E2,1.134271409E2
5.758023706E0,2.043570137E1,-6.018438339E0,1.024040451E2,1.045965006E2
5.763041050E0,2.459108925E1,-7.070552349E0,8.961583710E1,9.319717077E1
5.768058394E0,2.666751480E1,-6.062169552E0,7.762291718E1,8.229959609E1
5.773075738E0,2.513381195E1,-2.955628872E0,6.666236877E1,7.130438735E1
5.778093081E0,1.948563194E1,-1.046283364E0,5.640219116E1,5.968242395E1
5.783110425E0,9.908727646E0,-3.844596624E0,4.496841431E1,4.620738136E1
5.788127769E0,-7.464761138E-1,-9.575017929E0,3.021400833E1,3.170369843E1
5.793145113E0,-8.582416534E0,-1.292739010E1,1.558121586E1,2.198976071E1
5.798162456E0,-1.215054798E1,-1.239270687E1,5.558292389E0,1.822387484E1
5.803179800E0,-1.380565357E1,-9.789294243E0,-5.400047302E-1,1.693274808E1
5.808197144E0,-1.467021465E1,-8.628572464E0,-6.635064125E0,1.826722575E1
5.813214488E0,-1.516064453E1,-9.964451790E0,-1.491261864E1,2.348449780E1
5.818231831E0,-1.572557831E1,-1.222158623E1,-2.620453262E1,3.291410812E1
5.823249175E0,-1.640293121E1,-1.381792068E1,-3.986446762E1,4.526772430E1
5.828266519E0,-1.827424240E1,-1.479049492E1,-5.488474274E1,5.970796982E1
5.833283863E0,-2.097817039E1,-1.581799316E1,-6.885665894E1,7.369892822E1
5.838301206E0,-2.293313217E1,-1.626035500E1,-8.139794159E1,8.611592530E1
5.843318550E0,-2.371662140E1,-1.645292664E1,-9.178115082E1,9.621307900E1
5.848335894E0,-2.323589325E1,-1.682571411E1,-9.916507721E1,1.032314096E2
5.853353238E0,-2.100356102E1,-1.661384201E1,-1.035781326E2,1.069841057E2
5.858370581E0,-1.776743889E1,-1.702114868E1,-1.036560440E2,1.065362701E2
5.863387925E0,-1.532688141E1,-1.880895615E1,-1.000065155E2,1.029076929E2
5.868405269E0,-1.416249275E1,-2.155117416E1,-9.237006378E1,9.590233570E1
5.873422613E0,-1.330870056E1,-2.379938507E1,-8.073767090E1,8.521797781E1
5.878439956E0,-1.122802067E1,-2.538726997E1,-6.609720612E1,7.168976622E1
5.883457300E0,-8.317918777E0,-2.680427170E1,-5.052328491E1,5.779497446E1
5.888474644E0,-9.802656174E0,-2.970225525E1,-3.874822998E1,4.979700153E1
5.893491988E0,-1.295217514E1,-3.365342331E1,-2.683860016E1,4.495133146E1
5.898509331E0,-1.420292664E1,-3.405881500E1,-1.221862793E1,3.887185194E1
5.903526675E0,-1.013600445E1,-3.297450256E1,3.840548325E1,5.162400167E1
5.908544019E0,-3.654525757E0,-3.194258499E1,9.122895050E1,9.672851546E1
5.913561415E0,-7.225350142E-1,-2.688605881E1,1.072692261E2,1.105896427E2
5.918578811E0,5.549458027E0,-1.988722801E1,1.218543015E2,1.235911368E2
5.923596206E0,1.162613869E1,-1.598661900E1,1.303664856E2,1.318565875E2
5.928613602E0,1.726947212E1,-1.075611305E1,1.239723206E2,1.256306686E2
5.933630998E0,2.251688004E1,-7.204685211E0,1.194498367E2,1.217669121E2
5.938648394E0,2.507800102E1,-7.876817226E0,1.069168091E2,1.101006560E2
5.943665790E0,2.484498405E1,-9.679552078E0,8.978943634E1,9.366488050E1
5.948683186E0,2.369283104E1,-9.743392944E0,7.499030304E1,7.924537525E1
5.953700581E0,2.014587975E1,-7.615833282E0,6.477654266E1,6.826315160E1
5.958717977E0,1.385514927E1,-4.562131405E0,5.439474487E1,5.631666249E1
5.963735373E0,7.117622375E0,-3.659242868E0,4.325859070E1,4.399268434E1
5.968752769E0,-9.658257365E-1,-7.220892906E0,3.006176376E1,3.093192128E1
5.973770165E0,-8.276836395E0,-1.197830009E1,1.595012760E1,2.159611688E1
5.978787561E0,-1.220613194E1,-1.378530502E1,5.075689316E0,1.909939563E1
5.983804956E0,-1.289317799E1,-1.140279865E1,-1.808916092E0,1.730693598E1
5.988822352E0,-1.296313000E1,-8.168612480E0,-7.139572144E0,1.690391847E1
5.993839748E0,-1.337620068E1,-7.579172611E0,-1.366770554E1,2.057116372E1
5.998857144E0,-1.401982784E1,-9.457546234E0,-2.299865723E1,2.854713624E1
6.003874540E0,-1.515881634E1,-1.238409042E1,-3.526089096E1,4.032971410E1
6.008891936E0,-1.623979759E1,-1.432929039E1,-4.846660995E1,5.308551469E1
6.013909331E0,-1.763171387E1,-1.511359787E1,-6.113513565E1,6.539727047E1
6.018926727E0,-1.852869415E1,-1.524933243E1,-7.209732056E1,7.598604002E1
6.023944123E0,-1.808890533E1,-1.525373554E1,-8.123413849E1,8.461010696E1
6.028961519E0,-1.691822052E1,-1.550150681E1,-8.878010559E1,9.169749205E1
6.033978915E0,-1.538867188E1,-1.625534630E1,-9.515400696E1,9.775138130E1
6.038996311E0,-1.299220085E1,-1.707628632E1,-9.983252716E1,1.021123416E2
6.044013706E0,-1.040754128E1,-1.761366844E1,-1.008045197E2,1.028596588E2
6.049031102E0,-8.984535217E0,-1.868333054E1,-9.575217438E1,9.797074875E1
6.054048498E0,-8.090652466E0,-2.097203827E1,-8.405970764E1,8.701332941E1
6.059065842E0,-6.590956688E0,-2.343915939E1,-6.907694244E1,7.324246637E1
6.064083186E0,-5.863468170E0,-2.522545052E1,-5.544192505E1,6.119240693E1
6.069100529E0,-9.140930176E0,-2.787972069E1,-4.542353058E1,5.407524905E1
6.074117873E0,-1.310212898E1,-3.085179329E1,-3.524599838E1,4.863927770E1
6.079135217E0,-1.643645287E1,-3.182126999E1,-2.044883537E1,4.124203044E1
6.084152561E0,-1.517580795E1,-3.275683975E1,1.336170769E1,3.849481692E1
6.089169904E0,-1.139543915E1,-3.180237579E1,6.387706757E1,7.226013355E1
6.094187248E0,-6.268731117E0,-2.561501884E1,9.625103760E1,9.979823856E1
6.099204592E0,2.018234730E-1,-1.726084328E1,1.080753784E2,1.094452597E2
6.104221936E0,7.716832638E0,-1.424947262E1,1.235612946E2,1.246193825E2
6.109239279E0,1.175656319E1,-1.280450535E1,1.255510101E2,1.267486816E2
6.114256623E0,1.477085114E1,-1.066295815E1,1.233481598E2,1.246861871E2
6.119273967E0,1.888431549E1,-1.124506283E1,1.146963959E2,1.167832695E2
6.124291311E0,2.193427277E1,-1.243176556E1,9.845355225E1,1.016305223E2
6.129308654E0,2.317767334E1,-1.019703388E1,8.141978455E1,8.526643746E1
6.134325998E0,2.197085571E1,-6.053086758E0,6.799225616E1,7.170986863E1
6.139343342E0,1.803376961E1,-4.025168419E0,5.716215134E1,6.007437368E1
6.144360686E0,1.201298523E1,-5.013826847E0,4.774201965E1,4.948485338E1
6.149378029E0,5.126976967E0,-8.923516273E0,3.771133804E1,3.909040870E1
6.154395373E0,-9.951807857E-1,-1.282373619E1,2.437456131E1,2.756007681E1
6.159412717E0,-4.791153431E0,-1.409038830E1,1.182061958E1,1.900582124E1
6.164430061E0,-7.093688965E0,-1.241166496E1,3.216689110E0,1.465322282E1
6.169447404E0,-9.300385475E0,-1.009131908E1,-1.906576157E0,1.385521286E1
6.174464748E0,-1.085428524E1,-9.734676361E0,-7.216160774E0,1.626814090E1
6.179482092E0,-1.198195648E1,-1.090367794E1,-1.530799294E1,2.228883401E1
6.184499436E0,-1.393108368E1,-1.308666706E1,-2.780996323E1,3.374507374E1
6.189516779E0,-1.586138439E1,-1.501447678E1,-4.209849548E1,4.742679991E1
6.194534123E0,-1.720458412E1,-1.627481270E1,-5.640888596E1,6.117866996E1
6.199551467E0,-1.795011330E1,-1.696373367E1,-6.960229492E1,7.385427737E1
6.204568811E0,-1.762971878E1,-1.691593742E1,-8.027115631E1,8.390717764E1
6.209586154E0,-1.662694359E1,-1.653435135E1,-8.845763397E1,9.151280258E1
6.214603498E0,-1.514181328E1,-1.644257736E1,-9.470214844E1,9.730431531E1
6.219620842E0,-1.336441231E1,-1.686937714E1,-9.867872620E1,1.009983881E2
6.224638186E0,-1.219713211E1,-1.769559479E1,-9.975464630E1,1.020435866E2
6.229655529E0,-1.092568779E1,-1.929565239E1,-9.708583832E1,9.958590692E1
6.234672873E0,-9.551688194E0,-2.129423904E1,-9.056929016E1,9.352794066E1
6.239690217E0,-9.054817200E0,-2.334692764E1,-8.033231354E1,8.414481174E1
6.244707561E0,-7.681868076E0,-2.543310547E1,-6.574339294E1,7.090872772E1
6.249724904E0,-6.694554329E0,-2.670698357E1,-4.957182312E1,5.670489993E1
6.254742248E0,-8.409862518E0,-2.876728439E1,-3.744693375E1,4.796410414E1
6.259759592E0,-1.204453182E1,-3.104957199E1,-2.965979767E1,4.459652750E1
6.264776936E0,-1.536094570E1,-3.280190277E1,-1.479719925E1,3.912646910E1
6.269794279E0,-1.432884216E1,-3.470429230E1,2.019044495E1,4.263047840E1
6.274811623E0,-1.129590988E1,-3.502813721E1,6.926388550E1,7.843502923E1
6.279828967E0,-4.755286694E0,-2.929353333E1,1.031197662E2,1.073052190E2
6.284846311E0,1.625474572E0,-2.119544792E1,1.136764984E2,1.156470297E2
6.289863654E0,5.879752636E0,-1.648103523E1,1.263625946E2,1.275684182E2
6.294880998E0,1.060469341E1,-1.338515663E1,1.253962631E2,1.265537228E2
6.299898342E0,1.464287376E1,-1.049875832E1,1.195538330E2,1.209039150E2
6.304915686E0,1.948151207E1,-9.900177956E0,1.082040863E2,1.103887092E2
6.309933029E0,2.185662651E1,-8.989594460E0,9.217665100E1,9.515807859E1
6.314950373E0,2.153355598E1,-7.003361225E0,7.534021759E1,7.866949528E1
6.319967717E0,1.859664154E1,-3.995170116E0,6.272423172E1,6.554483737E1
6.324985061E0,1.447539711E1,-2.748283386E0,5.296020126E1,5.497156629E1
6.330002404E0,1.006033993E1,-4.579756260E0,4.113788986E1,4.259707254E1
6.335019748E0,4.846523285E0,-8.652009010E0,2.625374222E1,2.806430167E1
6.340037092E0,-2.194888592E-1,-1.260369968E1,9.126053810E0,1.556233528E1
6.345054436E0,-4.049614429E0,-1.382759094E1,-4.488162994E0,1.509123108E1
6.350071779E0,-6.427752018E0,-1.110021687E1,-1.212871647E1,1.765323125E1
6.355089123E0,-7.199560165E0,-6.548584461E0,-1.550291061E1,1.830458583E1
6.360106467E0,-7.275013447E0,-3.485660076E0,-1.888860893E1,2.053911376E1
6.365123811E0,-7.743929863E0,-3.111500502E0,-2.570308113E1,2.702403124E1
6.370141154E0,-8.896745682E0,-4.201603889E0,-3.607155228E1,3.738933595E1
6.375158498E0,-1.069900131E1,-5.473272800E0,-4.806682587E1,4.954639334E1
6.380175842E0,-1.297754097E1,-6.418815613E0,-6.005791473E1,6.177840145E1
6.385193186E0,-1.500834274E1,-6.169557571E0,-6.978572845E1,7.164748208E1
6.390210529E0,-1.698157120E1,-5.410825729E0,-7.722921753E1,7.925908677E1
6.395227873E0,-1.901575470E1,-5.463984489E0,-8.240783691E1,8.474966453E1
6.400245217E0,-1.979430008E1,-6.851245403E0,-8.522655487E1,8.776285965E1
6.405262561E0,-1.882968330E1,-8.647378922E0,-8.597000885E1,8.843176215E1
6.410279904E0,-1.643213272E1,-1.047167015E1,-8.429992676E1,8.652253182E1
6.415297248E0,-1.315129852E1,-1.201856422E1,-7.926541901E1,8.124290239E1
6.420314592E0,-1.005399799E1,-1.337412453E1,-7.158588409E1,7.351522893E1
6.425331936E0,-8.831611633E0,-1.531486511E1,-6.214485168E1,6.461056453E1
6.430349279E0,-1.077193546E1,-1.854332352E1,-5.227904510E1,5.650653058E1
6.435366623E0,-1.409808636E1,-2.175189590E1,-4.235948944E1,4.966112524E1
6.440383967E0,-1.698388100E1,-2.207064819E1,-2.824139786E1,3.966285767E1
6.445401311E0,-1.608038139E1,-2.341030502E1,1.117663574E1,3.052111128E1
6.450418654E0,-1.441394806E1,-2.467234230E1,5.764316940E1,6.433678071E1
6.455435998E0,-7.679130077E0,-2.097341537E1,8.180091095E1,8.479529600E1
6.460453342E0,4.133418202E-1,-1.242564583E1,9.532412720E1,9.613145558E1
6.465470686E0,7.670755863E0,-8.601149559E0,1.109826508E2,1.115794293E2
6.470488029E0,1.056641579E1,-7.143440723E0,1.096390762E2,1.103784622E2
6.475505373E0,9.367113113E0,-6.182302952E0,1.074154129E2,1.080001602E2
6.480522717E0,1.352583027E1,-6.860666752E0,1.029723434E2,1.040832376E2
6.485540061E0,1.930648232E1,-8.009306908E0,9.033734131E1,9.272391542E1
6.490557404E0,2.090041351E1,-7.232905865E0,7.355222321E1,7.680541485E1
6.495574748E0,1.872439384E1,-4.374084473E0,5.921921158E1,6.226275419E1
6.500592092E0,1.584180164E1,-2.740365982E0,4.736775970E1,5.002176471E1
6.505609436E0,1.238268566E1,-2.961309195E0,3.721971893E1,3.933710378E1
6.510626779E0,7.782166481E0,-4.939472198E0,2.838770103E1,2.984664254E1
6.515644123E0,1.661725044E0,-7.892390251E0,1.877389908E1,2.043307223E1
6.520661467E0,-3.914806843E0,-9.700242996E0,8.936207771E0,1.375777003E1
6.525678811E0,-6.767643452E0,-9.088253975E0,9.641647339E-1,1.137220171E1
6.530696154E0,-7.786739349E0,-7.153103352E0,-4.343953133E0,1.143110345E1
6.535713498E0,-8.237485886E0,-5.806706429E0,-9.044126511E0,1.354142672E1
6.540730842E0,-8.877757072E0,-5.794748306E0,-1.545697975E1,1.874331619E1
6.545748186E0,-1.006498051E1,-6.599581718E0,-2.391204453E1,2.677021077E1
6.550765529E0,-1.150179672E1,-7.551175117E0,-3.396630478E1,3.664725684E1
6.555782873E0,-1.292443275E1,-8.334989548E0,-4.477834320E1,4.734567597E1
6.560800217E0,-1.357273006E1,-8.480810165E0,-5.446103287E1,5.676396078E1
6.565817561E0,-1.378164768E1,-8.404708862E0,-6.342915344E1,6.545097746E1
6.570834904E0,-1.382940960E1,-8.859074593E0,-7.091275787E1,7.278980012E1
6.575852248E0,-1.392258072E1,-9.934555054E0,-7.652063751E1,7.840881075E1
6.580869592E0,-1.378654099E1,-1.137631702E1,-8.031912231E1,8.228396387E1
6.585886936E0,-1.325246906E1,-1.302441788E1,-8.224560547E1,8.431846189E1
6.590904279E0,-1.236675549E1,-1.460141182E1,-8.200818634E1,8.421092860E1
6.595921623E0,-1.152642727E1,-1.606535721E1,-7.934040833E1,8.176707541E1
6.600938967E0,-1.108231258E1,-1.733736992E1,-7.411580658E1,7.691914477E1
6.605956311E0,-1.069061852E1,-1.877568054E1,-6.628646088E1,6.971879517E1
6.610973654E0,-1.049625778E1,-2.052956009E1,-5.638656235E1,6.091862341E1
6.615990998E0,-1.089819145E1,-2.214247322E1,-4.672083664E1,5.283839772E1
6.621008342E0,-1.231962585E1,-2.345289040E1,-3.445014572E1,4.345829943E1
6.626025686E0,-9.944296837E0,-2.511694908E1,-7.280480385E0,2.797776913E1
6.631043029E0,-8.098301888E0,-2.600922585E1,3.427947998E1,4.378521520E1
6.636060373E0,-6.937288761E0,-2.655645370E1,6.997907257E1,7.516942069E1
6.641077717E0,-2.351634026E0,-2.207050514E1,8.231800079E1,8.525778929E1
6.646095061E0,1.941985369E0,-1.733165550E1,1.033844681E2,1.048451517E2
6.651112404E0,7.692766666E0,-1.410579777E1,1.172544861E2,1.183501867E2
6.656129748E0,1.420997143E1,-9.515648842E0,1.184816132E2,1.197094964E2
6.661147092E0,2.052826881E1,-7.193325520E0,1.174282379E2,1.194258967E2
6.666164436E0,2.434631920E1,-7.341718674E0,1.097619400E2,1.126691065E2
6.671181779E0,2.413161469E1,-7.069578648E0,9.255098724E1,9.590619901E1
6.676199123E0,2.080586052E1,-5.278118134E0,7.540109253E1,7.839685655E1
6.681216467E0,1.751254272E1,-3.518949986E0,6.253434753E1,6.503550402E1
6.686233811E0,1.415684700E1,-4.402773857E0,5.207296753E1,5.414235571E1
6.691251154E0,8.258607864E0,-7.820480824E0,4.018041611E1,4.175919495E1
6.696268498E0,9.429731369E-1,-1.300953770E1,2.580043983E1,2.891020521E1
6.701285842E0,-4.907791615E0,-1.572648621E1,1.260019875E1,2.074063151E1
6.706303186E0,-7.678943157E0,-1.484524441E1,4.341871262E0,1.726844798E1
6.711320529E0,-8.427955627E0,-1.180526543E1,6.660661697E-1,1.452027452E1
6.716337873E0,-8.764865875E0,-1.006919575E1,-1.916786194E0,1.348649866E1
6.721355217E0,-9.142905235E0,-1.061839199E1,-6.631492615E0,1.550224690E1
6.726372561E0,-9.758699417E0,-1.246464539E1,-1.357049561E1,2.085085010E1
6.731389904E0,-1.052577400E1,-1.492738152E1,-2.284621429E1,2.925009649E1
6.736407248E0,-1.117656136E1,-1.698961830E1,-3.340431976E1,3.910768764E1
6.741424592E0,-1.225845528E1,-1.867725372E1,-4.482157898E1,5.008076951E1
6.746441936E0,-1.360126686E1,-2.020856285E1,-5.597109222E1,6.104214640E1
6.751459279E0,-1.490981483E1,-2.136862755E1,-6.563137054E1,7.061442927E1
6.756476623E0,-1.487487030E1,-2.233917236E1,-7.238800049E1,7.720312819E1
6.761493967E0,-1.408139610E1,-2.338286400E1,-7.775502014E1,8.240683954E1
6.766511311E0,-1.207505894E1,-2.386454391E1,-8.331287384E1,8.750061972E1
6.771528654E0,-9.414354324E0,-2.422519302E1,-8.772488403E1,9.149396331E1
6.776545998E0,-8.292155266E0,-2.478989029E1,-8.829551697E1,9.208364033E1
6.781563342E0,-8.289124489E0,-2.565481567E1,-8.471871948E1,8.890523372E1
6.786580686E0,-8.550893784E0,-2.661208916E1,-7.871445465E1,8.353015291E1
6.791598029E0,-8.914232254E0,-2.731579208E1,-7.148062134E1,7.703956945E1
6.796615373E0,-9.878831863E0,-2.776956558E1,-6.368586731E1,7.017570653E1
6.801632717E0,-9.675298691E0,-2.853179932E1,-5.421455002E1,6.202332151E1
6.806650061E0,-8.686723709E0,-2.983774185E1,-4.449517059E1,5.427310765E1
6.811667404E0,-1.064897346E1,-2.905537415E1,-3.743255615E1,4.856759890E1
6.816684748E0,-1.459915543E1,-2.869655991E1,-1.981421280E1,3.780517053E1
6.821702092E0,-1.688949013E1,-3.057371330E1,9.109300613E0,3.609689986E1
6.826719436E0,-1.705586624E1,-2.960436058E1,5.004303741E1,6.059394633E1
6.831736779E0,-1.399783707E1,-2.148381042E1,9.710941315E1,1.004377005E2
6.836754123E0,-1.072012711E1,-1.272816277E1,1.206913757E2,1.218332279E2
6.841771467E0,-4.267354965E0,-6.367629528E0,1.287756500E2,1.290035855E2
6.846788811E0,3.115762711E0,-2.420734406E0,1.336775818E2,1.337357985E2
6.851806154E0,8.759405136E0,9.956758022E-1,1.264039154E2,1.267109639E2
6.856823550E0,1.421344185E1,2.290457726E0,1.153250580E2,1.162202096E2
6.861840946E0,1.687565422E1,1.079352736E0,1.005521164E2,1.019641153E2
6.866858342E0,1.562683582E1,-1.104151487E0,8.100666809E1,8.250755980E1
6.871875738E0,1.268112373E1,-1.799779534E0,6.344451904E1,6.472447066E1
6.876893134E0,1.130729103E1,-2.186632395E0,5.078392792E1,5.207344358E1
6.881910529E0,9.610525131E0,-4.743985653E0,3.989963913E1,4.131402662E1
6.886927925E0,4.485374928E0,-8.575608253E0,2.817685699E1,2.979253120E1
6.891945321E0,-1.162328839E0,-1.167347240E1,1.692502785E1,2.059314289E1
6.896962717E0,-3.598245382E0,-1.231919670E1,7.599760056E0,1.491530523E1
6.901980113E0,-4.574910641E0,-1.084332466E1,1.396100998E0,1.185143852E1
6.906997509E0,-5.718382359E0,-9.372373581E0,-3.419618607E0,1.149935106E1
6.912014904E0,-6.377596378E0,-9.126989365E0,-9.769378662E0,1.481271177E1
6.917032300E0,-6.406045914E0,-9.614813805E0,-1.748421860E1,2.095662112E1
6.922049696E0,-6.266701698E0,-1.080704880E1,-2.717684555E1,2.991061330E1
6.927067092E0,-6.123324871E0,-1.257232666E1,-3.859590912E1,4.105122052E1
6.932084488E0,-6.024895191E0,-1.415085411E1,-5.086711502E1,5.314140970E1
6.937101884E0,-6.213597775E0,-1.473453522E1,-6.232246017E1,6.434131152E1
6.942119279E0,-6.322036266E0,-1.467107296E1,-7.169487000E1,7.345313409E1
6.947136675E0,-6.047857285E0,-1.487647438E1,-7.814414215E1,7.977714598E1
6.952154071E0,-5.974983215E0,-1.605404663E1,-8.185341644E1,8.362663823E1
6.957171467E0,-6.524585724E0,-1.711620903E1,-8.382019043E1,8.579836335E1
6.962188863E0,-6.066433430E0,-1.830906868E1,-8.387814331E1,8.606722103E1
6.967206259E0,-4.720414639E0,-1.927238846E1,-8.194275665E1,8.431086904E1
6.972223654E0,-4.713429451E0,-2.030019379E1,-7.831922150E1,8.104452320E1
6.977241050E0,-5.757192612E0,-2.157464409E1,-7.265978241E1,7.601351534E1
6.982258446E0,-6.070143700E0,-2.273073006E1,-6.312567139E1,6.736752275E1
6.987275842E0,-5.247700691E0,-2.374654770E1,-5.117816925E1,5.666252640E1
6.992293238E0,-5.303552628E0,-2.497385025E1,-4.138285065E1,4.862469737E1
6.997310581E0,-7.778388500E0,-2.557324982E1,-3.434272003E1,4.351915501E1
7.002327925E0,-1.005705357E1,-2.663419914E1,-1.969736862E1,3.461952081E1
7.007345269E0,-9.632475853E0,-2.812724876E1,1.063653564E1,3.157629815E1
7.012362613E0,-1.007681274E1,-2.835480499E1,5.414469528E1,6.194501714E1
7.017379956E0,-5.868499756E0,-2.461872101E1,8.391895294E1,8.765221832E1
7.022397300E0,-3.514935732E0,-1.775900078E1,9.726477051E1,9.893519325E1
7.027414644E0,4.535723627E-1,-1.338208580E1,1.124089279E2,1.132035910E2
7.032431988E0,4.395854473E0,-9.296850204E0,1.180016632E2,1.184489235E2
7.037449331E0,7.680819511E0,-4.428161621E0,1.162254181E2,1.165630791E2
7.042466675E0,1.147201252E1,-4.291686058E0,1.094164047E2,1.100998422E2
7.047484019E0,1.342715836E1,-7.447440624E0,9.440001678E1,9.564055689E1
7.052501363E0,1.425193501E1,-7.577991486E0,7.768513489E1,7.934433684E1
7.057518706E0,1.464066315E1,-5.892890453E0,6.202135468E1,6.399784067E1
7.062536050E0,1.393909264E1,-4.081956387E0,5.002788925E1,5.209366924E1
7.067553394E0,1.175789070E1,-3.804900646E0,4.184899139E1,4.363557429E1
7.072570738E0,7.743045807E0,-5.930303574E0,3.395044708E1,3.532359149E1
7.077588081E0,2.467809200E0,-9.163747787E0,2.369497299E1,2.552481343E1
7.082605425E0,-2.855561495E0,-1.157829857E1,1.172307587E1,1.672249195E1
7.087622769E0,-6.577069759E0,-1.223287964E1,1.290076256E0,1.394867333E1
7.092640113E0,-8.298420906E0,-1.106460762E1,-6.342028618E0,1.521547430E1
7.097657456E0,-9.154112816E0,-9.589941025E0,-1.253268909E1,1.824371251E1
7.102674800E0,-9.495464325E0,-9.323600769E0,-1.940493393E1,2.352965862E1
7.107692144E0,-9.422546387E0,-1.020040035E1,-2.871263313E1,3.189432315E1
7.112709488E0,-9.608974457E0,-1.174628639E1,-4.017860031E1,4.294912755E1
7.117726831E0,-9.881917000E0,-1.306260300E1,-5.126961517E1,5.382246112E1
7.122744175E0,-9.769741058E0,-1.380422306E1,-6.209374237E1,6.435555342E1
7.127761519E0,-9.965933800E0,-1.431647110E1,-7.210099792E1,7.418109653E1
7.132778863E0,-1.045044136E1,-1.447416687E1,-8.050341034E1,8.245915539E1
7.137796206E0,-1.069618225E1,-1.459095955E1,-8.643624878E1,8.830928331E1
7.142813550E0,-1.050526810E1,-1.489281750E1,-8.949690247E1,9.133374087E1
7.147830894E0,-1.031959534E1,-1.534612465E1,-8.930149078E1,9.119623811E1
7.152848238E0,-9.939695358E0,-1.638944435E1,-8.506272888E1,8.719563793E1
7.157865581E0,-8.546141624E0,-1.815290260E1,-7.708857727E1,7.965684625E1
7.162882925E0,-7.021703243E0,-2.001409531E1,-6.685411072E1,7.013801000E1
7.167900269E0,-6.825603008E0,-2.165784454E1,-5.577429581E1,6.021979043E1
7.172917613E0,-8.214142799E0,-2.329204178E1,-4.573313141E1,5.197605853E1
7.177934956E0,-1.049347591E1,-2.487257385E1,-3.960578537E1,4.793095244E1
7.182952300E0,-1.213998127E1,-2.468893814E1,-3.145882607E1,4.179211109E1
7.187969644E0,-1.248377705E1,-2.474449921E1,-1.270252228E0,2.774434124E1
7.192986988E0,-9.403486252E0,-2.453372002E1,4.281015778E1,5.022985746E1
7.198004331E0,-4.324085236E0,-2.279430199E1,6.741462708E1,7.129523027E1
7.203021675E0,-7.427105904E-1,-1.837212372E1,8.025927734E1,8.233855809E1
7.208039019E0,-8.968174458E-3,-1.742750359E1,1.008520203E2,1.023467047E2
7.213056363E0,1.202432632E0,-1.581612492E1,1.050059662E2,1.061972155E2
7.218073706E0,8.429068565E0,-1.068411541E1,1.099390182E2,1.107780992E2
7.223091050E0,1.705797195E1,-7.712590694E0,1.171118240E2,1.185986416E2
7.228108394E0,1.690569878E1,-1.011486340E1,1.068588486E2,1.086596826E2
7.233125738E0,1.302772331E1,-1.275566006E1,8.674734497E1,8.864271148E1
7.238143081E0,1.290695763E1,-1.005202389E1,6.951435089E1,7.141342814E1
7.243160425E0,1.416331005E1,-5.804158211E0,5.566773987E1,5.773374114E1
7.248177769E0,1.305879974E1,-4.837069035E0,4.642750168E1,4.847104702E1
7.253195113E0,1.030685329E1,-6.115596294E0,3.915386581E1,4.094700173E1
7.258212456E0,7.055578232E0,-8.665638924E0,3.220413208E1,3.408783662E1
7.263229800E0,2.861688137E0,-1.184256744E1,2.285382843E1,2.589851611E1
7.268247144E0,-2.316746235E0,-1.394586563E1,1.234944916E1,1.877134454E1
7.273264488E0,-7.188428402E0,-1.390605927E1,4.288744926E0,1.623099874E1
7.278281831E0,-1.059916973E1,-1.236947918E1,-7.277364731E-1,1.630570497E1
7.283299175E0,-1.163329887E1,-1.106435585E1,-4.962793827E0,1.680425350E1
7.288316519E0,-1.096424675E1,-1.080468559E1,-9.819495201E0,1.825865339E1
7.293333863E0,-1.024849415E1,-1.141610909E1,-1.689068985E1,2.281785666E1
7.298351206E0,-9.543694496E0,-1.272396851E1,-2.587012100E1,3.036848103E1
7.303368550E0,-8.827446938E0,-1.407431602E1,-3.611223602E1,3.975051926E1
7.308385894E0,-8.543877602E0,-1.507807350E1,-4.675291443E1,4.986162004E1
7.313403238E0,-8.814738274E0,-1.573395348E1,-5.697617340E1,5.976237310E1
7.318420581E0,-9.365126610E0,-1.611949921E1,-6.612745667E1,6.870505350E1
7.323437925E0,-1.051657295E1,-1.676126671E1,-7.370698547E1,7.631682695E1
7.328455269E0,-1.183348370E1,-1.763426971E1,-7.985603333E1,8.263162145E1
7.333472613E0,-1.268225861E1,-1.834265327E1,-8.463256073E1,8.752121428E1
7.338489956E0,-1.244420052E1,-1.837335014E1,-8.749262238E1,9.026293310E1
7.343507300E0,-1.066795635E1,-1.843067932E1,-8.748567200E1,9.004020234E1
7.348524644E0,-8.951113701E0,-1.884264183E1,-8.415377045E1,8.670077663E1
7.353541988E0,-8.173082352E0,-2.002034187E1,-7.734485626E1,8.031089686E1
7.358559331E0,-8.028926849E0,-2.197933769E1,-6.690823364E1,7.088206177E1
7.363576675E0,-7.602432728E0,-2.341168594E1,-5.548029327E1,6.069569148E1
7.368594019E0,-7.848579407E0,-2.439172935E1,-4.559933090E1,5.230540735E1
7.373611363E0,-9.709980965E0,-2.633153343E1,-3.866589737E1,4.777745287E1
7.378628706E0,-1.269078827E1,-2.719565964E1,-3.447221756E1,4.570551163E1
7.383646050E0,-1.471839905E1,-2.893554306E1,-1.872221375E1,3.747556818E1
7.388663394E0,-1.191468716E1,-2.904670525E1,1.801484680E1,3.619676175E1
7.393680738E0,-8.110619545E0,-2.768491173E1,5.994031525E1,6.652125885E1
7.398698081E0,-3.549562931E0,-2.115652466E1,8.516334534E1,8.782364899E1
7.403715425E0,2.247577906E-1,-1.381800938E1,9.984891510E1,1.008007626E2
7.408732769E0,4.359354496E0,-1.214423466E1,1.163398590E2,1.170531896E2
7.413750113E0,8.571464539E0,-9.694453239E0,1.178709183E2,1.185791120E2
7.418767456E0,1.363860226E1,-6.652072430E0,1.185795822E2,1.195465552E2
7.423784800E0,1.848966217E1,-7.132761478E0,1.135576477E2,1.152739487E2
7.428802144E0,1.839492989E1,-9.737345695E0,9.609201813E1,9.832021814E1
7.433819488E0,1.660912704E1,-8.429249763E0,7.680035400E1,7.902663936E1
7.438836831E0,1.613678932E1,-5.174221992E0,6.123050690E1,6.353222425E1
7.443854175E0,1.527095127E1,-4.508202553E0,5.001339722E1,5.248681496E1
7.448871519E0,1.265760326E1,-5.900954723E0,3.994012451E1,4.231134284E1
7.453888863E0,9.458082199E0,-7.555089474E0,3.084677124E1,3.313695809E1
7.458906206E0,6.295807838E0,-9.510145187E0,2.095488167E1,2.385764287E1
7.463923550E0,2.273588419E0,-1.169448566E1,1.132720375E1,1.643884862E1
7.468940894E0,-1.792088509E0,-1.250427055E1,3.948801041E0,1.323485523E1
7.473958238E0,-5.035964966E0,-1.143429184E1,-6.649446487E-1,1.251183937E1
7.478975581E0,-7.374300957E0,-9.604777336E0,-4.705572605E0,1.299132310E1
7.483992925E0,-8.101631165E0,-8.516985893E0,-9.787905693E0,1.529635820E1
7.489010269E0,-7.994265556E0,-8.490875244E0,-1.699499130E1,2.061147674E1
7.494027613E0,-8.400211334E0,-9.248177528E0,-2.622960854E1,2.905313584E1
7.499044956E0,-9.039255142E0,-1.011726761E1,-3.588547134E1,3.836449258E1
7.504062300E0,-9.331310272E0,-1.035018063E1,-4.514540482E1,4.724729798E1
7.509079644E0,-9.988370895E0,-1.016670036E1,-5.425285721E1,5.609368828E1
7.514096988E0,-1.138949966E1,-1.038973713E1,-6.228146362E1,6.416111012E1
7.519114331E0,-1.296438026E1,-1.093438816E1,-6.864699554E1,7.071100337E1
7.524131675E0,-1.450241947E1,-1.122618580E1,-7.388444519E1,7.612659627E1
7.529149019E0,-1.553402710E1,-1.146879864E1,-7.759278870E1,7.995924085E1
7.534166363E0,-1.575181007E1,-1.233177376E1,-7.954463196E1,8.202158641E1
7.539183706E0,-1.563069725E1,-1.340809441E1,-7.940452576E1,8.203154517E1
7.544201050E0,-1.532672024E1,-1.439797211E1,-7.651771545E1,7.935471462E1
7.549218394E0,-1.408850670E1,-1.602283859E1,-7.062783813E1,7.378013891E1
7.554235738E0,-1.241297531E1,-1.764280319E1,-6.257580566E1,6.618974177E1
7.559253081E0,-1.148408413E1,-1.884947586E1,-5.370264053E1,5.806169588E1
7.564270425E0,-1.166550159E1,-2.002785873E1,-4.533441925E1,5.091570113E1
7.569287769E0,-1.163564110E1,-2.164506531E1,-3.726303482E1,4.463665265E1
7.574305113E0,-1.171455383E1,-2.305542755E1,-3.176406860E1,4.096021930E1
7.579322456E0,-1.102099228E1,-2.410956383E1,-1.451520443E1,3.022291347E1
7.584339800E0,-8.235161781E0,-2.392797089E1,2.473646927E1,3.538726596E1
7.589357144E0,-5.179177761E0,-2.194395828E1,5.870697784E1,6.288776061E1
7.594374488E0,2.895689607E-1,-1.392713261E1,7.123497009E1,7.258422581E1
7.599391831E0,4.209407806E0,-6.015359879E0,8.624797058E1,8.655989890E1
7.604409175E0,7.401365280E0,-4.041029930E0,9.962177277E1,9.997803629E1
7.609426519E0,1.004721546E1,-1.810910583E0,9.846224213E1,9.899009577E1
7.614443863E0,1.234891224E1,-1.325237393E0,1.030913467E2,1.038367838E2
7.619461206E0,1.487463665E1,-3.694076300E0,1.044010620E2,1.055200586E2
7.624478550E0,1.462821198E1,-7.664128304E0,8.905019379E1,9.056854013E1
7.629495894E0,1.473410225E1,-8.228051186E0,6.976564026E1,7.177770654E1
7.634513238E0,1.567980957E1,-5.091055393E0,5.479467010E1,5.722089780E1
7.639530581E0,1.512014675E1,-1.832072139E0,4.532145309E1,4.781223104E1
7.644547925E0,1.275262260E1,-1.752332091E0,3.881823349E1,4.089688622E1
7.649565269E0,9.056782722E0,-4.045706272E0,3.209591675E1,3.359376318E1
7.654582613E0,6.085276604E0,-6.085110188E0,2.422010040E1,2.570354880E1
7.659599956E0,3.463999271E0,-7.756502628E0,1.665169907E1,1.869335994E1
7.664617300E0,7.663489580E-1,-9.052358627E0,1.025616360E1,1.370114518E1
7.669634644E0,-1.744412065E0,-9.845306396E0,5.366941452E0,1.134799947E1
7.674651988E0,-3.862062454E0,-1.055179501E1,1.050130844E0,1.128533026E1
7.679669331E0,-5.853643417E0,-1.147760201E1,-4.415982723E0,1.361988959E1
7.684686675E0,-7.592971802E0,-1.225476074E1,-1.133658695E1,1.833986329E1
7.689704019E0,-8.262232780E0,-1.210192204E1,-1.885242271E1,2.387749672E1
7.694721363E0,-8.260026932E0,-1.154664612E1,-2.677076721E1,3.030226161E1
7.699738706E0,-8.531007767E0,-1.133332634E1,-3.479875946E1,3.757893079E1
7.704756050E0,-9.550999641E0,-1.152711678E1,-4.348683167E1,4.599130944E1
7.709773394E0,-1.127366352E1,-1.182313061E1,-5.309094620E1,5.554755147E1
7.714790738E0,-1.315205765E1,-1.201717377E1,-6.162076187E1,6.414442594E1
7.719808081E0,-1.501144981E1,-1.235947800E1,-6.763671875E1,7.037631736E1
7.724825425E0,-1.669038773E1,-1.282410431E1,-7.082588959E1,7.388730155E1
7.729842769E0,-1.808826065E1,-1.347956276E1,-7.224074554E1,7.568096922E1
7.734860113E0,-1.906025314E1,-1.456932449E1,-7.352597809E1,7.734098474E1
7.739877456E0,-1.898416519E1,-1.585305977E1,-7.494417572E1,7.891988030E1
7.744894800E0,-1.810856819E1,-1.742272186E1,-7.460920715E1,7.872741118E1
7.749912144E0,-1.661165237E1,-1.920046616E1,-7.051204681E1,7.494366979E1
7.754929488E0,-1.393420410E1,-2.064607239E1,-6.239448547E1,6.718254361E1
7.759946831E0,-1.013047218E1,-2.170750046E1,-5.159844208E1,5.688797120E1
7.764964175E0,-9.133302689E0,-2.125352287E1,-4.516298294E1,5.074272835E1
7.769981519E0,-9.103629112E0,-2.206367302E1,-3.614687347E1,4.331602697E1
7.774998863E0,-5.585813522E0,-1.978142166E1,-1.057654572E1,2.311642868E1
7.780016206E0,-2.868322372E0,-1.732520676E1,2.120155525E1,2.752991114E1
7.785033550E0,-7.537855506E-1,-1.469827938E1,4.595008087E1,4.824953411E1
7.790050894E0,-5.225556493E-1,-9.351246834E0,5.543437576E1,5.622000443E1
7.795068238E0,1.199952483E0,-7.105964661E0,7.765346527E1,7.798714823E1
7.800085581E0,4.998637199E0,-3.908959389E0,9.786527252E1,9.807078007E1
7.805102977E0,1.153092480E1,2.184727669E0,1.111908035E2,1.118084525E2
7.810120373E0,1.892772484E1,3.513493538E0,1.230903015E2,1.245866194E2
7.815137769E0,2.272216606E1,-5.258029103E-1,1.173238068E2,1.195050163E2
7.820155165E0,1.996557808E1,-6.710321426E0,9.498600769E1,9.729334190E1
7.825172561E0,1.859959984E1,-7.209629536E0,7.393087769E1,7.657479055E1
7.830189956E0,1.791144562E1,-3.293119907E0,5.793574142E1,6.073067312E1
7.835207352E0,1.407008743E1,-4.841890931E-1,4.618149567E1,4.827973013E1
7.840224748E0,9.324462891E0,-1.219121337E0,3.611051178E1,3.731488880E1
7.845242144E0,5.006642342E0,-4.678102493E0,2.773472977E1,2.856862520E1
7.850259540E0,2.162426710E0,-7.757012367E0,1.998172379E1,2.154336593E1
7.855276936E0,3.090246916E-1,-1.007081223E1,1.405469894E1,1.729310029E1
7.860294331E0,-1.500308752E0,-1.131496811E1,1.004109097E1,1.520207017E1
7.865311727E0,-2.873753071E0,-1.146786976E1,7.158857346E0,1.382098882E1
7.870329123E0,-3.934763432E0,-1.155724144E1,4.154086113E0,1.289607011E1
7.875346519E0,-5.245435715E0,-1.180486298E1,-4.372024536E-2,1.291786736E1
7.880363915E0,-6.576966286E0,-1.195225906E1,-5.250934124E0,1.461797836E1
7.885381311E0,-7.553867340E0,-1.161687660E1,-1.070581341E1,1.751077310E1
7.890398706E0,-8.110310555E0,-1.083903313E1,-1.604948425E1,2.099637400E1
7.895416102E0,-8.330875397E0,-1.017608452E1,-2.174184799E1,2.540992198E1
7.900433498E0,-8.361906052E0,-1.006308651E1,-2.816797829E1,3.105836737E1
7.905450894E0,-8.224612236E0,-1.027211475E1,-3.544317627E1,3.780713335E1
7.910468290E0,-8.052413940E0,-1.100936317E1,-4.323115540E1,4.533188993E1
7.915485686E0,-8.314708710E0,-1.236641312E1,-5.062822342E1,5.277574785E1
7.920503081E0,-9.060756683E0,-1.347192001E1,-5.701176834E1,5.927842500E1
7.925520477E0,-9.369337082E0,-1.402364349E1,-6.237812805E1,6.461793802E1
7.930537873E0,-8.764806747E0,-1.411765671E1,-6.778403473E1,6.979115583E1
7.935555269E0,-7.902320862E0,-1.445081520E1,-7.236346436E1,7.421417458E1
7.940572665E0,-7.027413368E0,-1.541258812E1,-7.474435425E1,7.663974754E1
7.945590061E0,-6.041913986E0,-1.664280701E1,-7.458152008E1,7.665435987E1
7.950607404E0,-4.810840607E0,-1.789399338E1,-7.170342255E1,7.405889542E1
7.955624748E0,-3.381916523E0,-1.883894730E1,-6.683981323E1,6.952628228E1
7.960642092E0,-2.732645035E0,-1.986781311E1,-6.160289001E1,6.478513259E1
7.965659436E0,-3.676179409E0,-2.117293549E1,-5.719092178E1,6.109508185E1
7.970676779E0,-5.816948414E0,-2.291262436E1,-5.174922943E1,5.689295203E1
7.975694123E0,-8.192294121E0,-2.473494911E1,-4.555287933E1,5.247853091E1
7.980711467E0,-1.023239708E1,-2.533067513E1,-4.232796478E1,5.037858330E1
7.985728811E0,-1.189572811E1,-2.409946060E1,-3.070621490E1,4.080642085E1
7.990746154E0,-1.086113358E1,-2.145930290E1,7.244411469E0,2.511866639E1
7.995763498E0,-6.175057411E0,-2.189565468E1,5.396525192E1,5.856448961E1
8.000780842E0,-6.207428455E0,-2.114857483E1,7.236083221E1,7.564313865E1
8.005798186E0,-2.809552670E0,-1.491437912E1,7.918274689E1,8.062406400E1
8.010815529E0,-2.328589439E0,-1.209832096E1,1.006699371E2,1.014210429E2
8.015832873E0,4.754076004E-1,-8.261881828E0,1.094344788E2,1.097469355E2
8.020850217E0,7.564980507E0,-3.980297804E0,1.185018997E2,1.188098141E2
8.025867561E0,1.638731003E1,-4.105363369E0,1.236353149E2,1.247841698E2
8.030884904E0,1.789517021E1,-8.652913094E0,1.082770157E2,1.100864304E2
8.035902248E0,1.512601852E1,-1.242911625E1,8.443442535E1,8.667439963E1
8.040919592E0,1.586625099E1,-1.076216221E1,6.562003326E1,6.836337339E1
8.045936936E0,1.688380623E1,-6.813229084E0,5.332255554E1,5.634516779E1
8.050954279E0,1.485626030E1,-4.616336346E0,4.573400497E1,4.830753815E1
8.055971623E0,1.017222691E1,-5.273899078E0,4.042738342E1,4.201977561E1
8.060988967E0,6.054381847E0,-7.180829525E0,3.316688919E1,3.447118203E1
8.066006311E0,2.960923195E0,-9.912762642E0,2.526846886E1,2.730431189E1
8.071023654E0,1.667990685E-1,-1.267639542E1,1.667611885E1,2.094783432E1
8.076040998E0,-3.558959961E0,-1.479041004E1,8.576064110E0,1.746342752E1
8.081058342E0,-7.971566200E0,-1.564987564E1,1.828334808E0,1.765806568E1
8.086075686E0,-1.107279682E1,-1.478339481E1,-3.806813717E0,1.885861666E1
8.091093029E0,-1.230093861E1,-1.265423965E1,-9.103806496E0,1.985754679E1
8.096110373E0,-1.230901623E1,-1.061422062E1,-1.484117699E1,2.200986357E1
8.101127717E0,-1.166535187E1,-9.409404755E0,-2.089845085E1,2.571697066E1
8.106145061E0,-1.062057304E1,-8.875292778E0,-2.686054039E1,3.021681690E1
8.111162404E0,-9.540277481E0,-8.832201004E0,-3.381644821E1,3.622950232E1
8.116179748E0,-8.405858994E0,-8.707386017E0,-4.129660797E1,4.303355512E1
8.121197092E0,-7.710289001E0,-8.277988434E0,-4.884308624E1,5.013602221E1
8.126214436E0,-8.083909988E0,-8.575115204E0,-5.631538773E1,5.753525090E1
8.131231779E0,-8.845477104E0,-9.056457520E0,-6.277040863E1,6.403425714E1
8.136249123E0,-9.282331467E0,-9.235931396E0,-6.822147369E1,6.946678040E1
8.141266467E0,-9.930624962E0,-9.820373535E0,-7.288668823E1,7.421271030E1
8.146283811E0,-1.085449600E1,-1.069334030E1,-7.686791992E1,7.836354205E1
8.151301154E0,-1.188723850E1,-1.204993057E1,-7.950909424E1,8.129085639E1
8.156318498E0,-1.226528931E1,-1.380816269E1,-8.035385895E1,8.244904685E1
8.161335842E0,-9.791344643E0,-1.494030571E1,-7.820861816E1,8.022263471E1
8.166353186E0,-1.775272846E0,-1.470108223E1,-7.095667267E1,7.248532823E1
8.171370529E0,2.945052624E0,-1.474212074E1,-6.546352386E1,6.716752501E1
8.176387873E0,3.637679815E-1,-1.749697495E1,-6.058654785E1,6.306350958E1
8.181405217E0,-3.449282885E0,-2.126967812E1,-5.500931168E1,5.907893982E1
8.186422561E0,-4.855333805E0,-2.399207306E1,-5.198117065E1,5.745638292E1
8.191439904E0,-7.134257317E0,-2.620287704E1,-4.809277725E1,5.523045914E1
8.196457248E0,-9.976232529E0,-2.740155411E1,-4.717901993E1,5.546377470E1
8.201474592E0,-1.365053940E1,-2.771032333E1,-2.682460785E1,4.091159776E1
8.206491936E0,-9.908854485E0,-2.696319389E1,4.736517715E1,5.539548022E1
8.211509279E0,-1.840474701E1,-2.715233231E1,8.462125397E1,9.075649004E1
8.216526623E0,-9.745249748E0,-1.897043800E1,9.690769958E1,9.922675874E1
8.221543967E0,-4.432722330E-1,-1.180533123E1,1.223180313E2,1.228871967E2
8.226561311E0,4.429749489E0,-6.275707245E0,1.287190552E2,1.289480607E2
8.231578654E0,1.409101868E1,1.844043136E-1,1.335798187E2,1.343211033E2
8.236595998E0,2.096973991E1,-8.626987040E-2,1.367773132E2,1.383754705E2
8.241613342E0,2.012498665E1,-7.559769630E0,1.164287262E2,1.183968475E2
8.246630686E0,1.461408043E1,-1.283588886E1,8.921875000E1,9.131438409E1
8.251648029E0,1.267599392E1,-1.097837830E1,6.801111603E1,7.004796582E1
8.256665373E0,1.352044582E1,-5.824151993E0,5.466581726E1,5.661337985E1
8.261682717E0,1.335013771E1,-2.735471010E0,4.614402771E1,4.811424188E1
8.266700061E0,1.129140663E1,-2.745087624E0,3.823991394E1,3.996651583E1
8.271717404E0,7.324703217E0,-4.373784065E0,2.984699821E1,3.104230286E1
8.276734748E0,3.273775578E0,-8.348103523E0,2.221735764E1,2.395870237E1
8.281752092E0,5.260871649E-1,-1.275186539E1,1.494955730E1,1.965645192E1
8.286769436E0,-2.484998703E0,-1.504997444E1,8.299966812E0,1.736566723E1
8.291786779E0,-6.309457779E0,-1.509404469E1,3.159465790E0,1.666198267E1
8.296804123E0,-9.548139572E0,-1.392042828E1,-9.965848923E-1,1.690971538E1
8.301821467E0,-1.135160828E1,-1.287718678E1,-5.053307533E0,1.789460440E1
