"Time (s)","Gyroscope x (rad/s)","Gyroscope y (rad/s)","Gyroscope z (rad/s)","Absolute (rad/s)"
2.622798700E-2,9.321057005E-4,4.926844500E-3,-1.198421582E-3,5.155466230E-3
2.872830000E-2,1.997369342E-3,4.926844500E-3,-1.331579551E-4,5.317989475E-3
3.122923700E-2,3.062632866E-3,7.057371549E-3,-1.331579551E-4,7.694409938E-3
3.373111200E-2,1.997369342E-3,7.057371549E-3,9.321057005E-4,7.393564669E-3
3.623413300E-2,1.997369342E-3,5.992108025E-3,-1.331579551E-4,6.317639900E-3
3.873845600E-2,1.997369342E-3,4.926844500E-3,-1.198421582E-3,5.449724333E-3
4.124423700E-2,9.321057005E-4,5.992108025E-3,-1.331579551E-4,6.065633574E-3
4.375152900E-2,9.321057005E-4,4.926844500E-3,9.321057005E-4,5.100141057E-3
4.626027900E-2,9.321057005E-4,4.926844500E-3,9.321057005E-4,5.100141057E-3
4.877043500E-2,9.321057005E-4,2.796316985E-3,9.321057005E-4,3.091444768E-3
5.128189400E-2,-1.331579551E-4,1.731053460E-3,9.321057005E-4,1.970557830E-3
5.379449800E-2,-1.331579551E-4,6.657897611E-4,9.321057005E-4,1.153181722E-3
5.630803900E-2,-1.198421582E-3,-3.994738800E-4,-1.331579551E-4,1.270245925E-3
5.882225800E-2,-1.198421582E-3,-1.464737463E-3,-1.331579551E-4,1.897208782E-3
6.133689400E-2,-1.198421582E-3,-1.464737463E-3,9.321057005E-4,2.109618724E-3
6.385168500E-2,-1.198421582E-3,-1.464737463E-3,9.321057005E-4,2.109618724E-3
6.636475800E-2,-1.198421582E-3,-3.994738800E-4,9.321057005E-4,1.569909139E-3
6.887330000E-2,-1.198421582E-3,-3.994738800E-4,-1.331579551E-4,1.270245925E-3
7.138184100E-2,-1.198421582E-3,-3.994738800E-4,9.321057005E-4,1.569909139E-3
7.389038300E-2,-1.198421582E-3,6.657897611E-4,-1.331579551E-4,1.377396578E-3
7.639892500E-2,-1.331579551E-4,2.796316985E-3,-1.331579551E-4,2.802650667E-3
7.890746600E-2,9.321057005E-4,2.796316985E-3,-1.198421582E-3,3.181890005E-3
8.141600800E-2,9.321057005E-4,3.861580743E-3,-1.331579551E-4,3.974714821E-3
8.392455000E-2,1.997369342E-3,4.926844500E-3,-1.198421582E-3,5.449724333E-3
8.643309100E-2,1.997369342E-3,4.926844500E-3,-1.198421582E-3,5.449724333E-3
8.894163300E-2,9.321057005E-4,4.926844500E-3,9.321057005E-4,5.100141057E-3
9.145017500E-2,9.321057005E-4,3.861580743E-3,-1.198421582E-3,4.149318155E-3
9.395871600E-2,-1.331579551E-4,1.731053460E-3,-1.331579551E-4,1.741266253E-3
9.646725800E-2,9.321057005E-4,6.657897611E-4,-1.331579551E-4,1.153181722E-3
9.897580000E-2,-1.331579551E-4,6.657897611E-4,-1.198421582E-3,1.377396578E-3
1.014843410E-1,-1.198421582E-3,1.731053460E-3,-1.331579551E-4,2.109618783E-3
1.039928830E-1,-1.331579551E-4,6.657897611E-4,9.321057005E-4,1.153181722E-3
1.065014250E-1,-1.331579551E-4,-3.994738800E-4,-1.331579551E-4,4.416349882E-4
1.090099660E-1,9.321057005E-4,-3.994738800E-4,-1.331579551E-4,1.022805680E-3
1.115185080E-1,-1.331579551E-4,-3.994738800E-4,-2.263685223E-3,2.302516278E-3
1.140270500E-1,-1.198421582E-3,-3.994738800E-4,-1.198421582E-3,1.741266193E-3
1.165355910E-1,-1.198421582E-3,-3.994738800E-4,-1.198421582E-3,1.741266193E-3
1.190441330E-1,-1.198421582E-3,-3.994738800E-4,-1.331579551E-4,1.270245925E-3
1.215526750E-1,-1.198421582E-3,6.657897611E-4,-1.198421582E-3,1.820907626E-3
1.240612160E-1,-1.331579551E-4,1.731053460E-3,-1.198421582E-3,2.109618783E-3
1.265697580E-1,9.321057005E-4,3.861580743E-3,9.321057005E-4,4.080373501E-3
1.290783000E-1,9.321057005E-4,3.861580743E-3,9.321057005E-4,4.080373501E-3
1.315868410E-1,9.321057005E-4,3.861580743E-3,9.321057005E-4,4.080373501E-3
1.340953830E-1,9.321057005E-4,3.861580743E-3,9.321057005E-4,4.080373501E-3
1.366039250E-1,-1.331579551E-4,3.861580743E-3,9.321057005E-4,3.974714821E-3
1.391124660E-1,9.321057005E-4,3.861580743E-3,9.321057005E-4,4.080373501E-3
1.416210080E-1,1.997369342E-3,4.926844500E-3,-1.331579551E-4,5.317989475E-3
1.441295500E-1,-1.331579551E-4,3.861580743E-3,-1.331579551E-4,3.866169669E-3
1.466380910E-1,-1.331579551E-4,3.861580743E-3,-1.198421582E-3,4.045460562E-3
1.491466330E-1,9.321057005E-4,2.796316985E-3,-1.331579551E-4,2.950583122E-3
1.516551750E-1,-1.331579551E-4,2.796316985E-3,9.321057005E-4,2.950583122E-3
1.541637160E-1,-1.331579551E-4,2.796316985E-3,-1.331579551E-4,2.802650667E-3
1.566722580E-1,-1.198421582E-3,2.796316985E-3,-1.198421582E-3,3.269834439E-3
1.591808000E-1,-1.331579551E-4,1.731053460E-3,9.321057005E-4,1.970557830E-3
1.616893410E-1,-1.198421582E-3,6.657897611E-4,9.321057005E-4,1.657803164E-3
1.641978830E-1,-1.331579551E-4,6.657897611E-4,9.321057005E-4,1.153181722E-3
1.667064250E-1,-1.198421582E-3,6.657897611E-4,-1.331579551E-4,1.377396578E-3
1.692149660E-1,-1.331579551E-4,1.731053460E-3,9.321057005E-4,1.970557830E-3
1.717235080E-1,9.321057005E-4,2.796316985E-3,-1.198421582E-3,3.181890005E-3
1.742320500E-1,9.321057005E-4,2.796316985E-3,-1.198421582E-3,3.181890005E-3
1.767405910E-1,9.321057005E-4,2.796316985E-3,-1.331579551E-4,2.950583122E-3
1.792491330E-1,9.321057005E-4,3.861580743E-3,-1.198421582E-3,4.149318155E-3
1.817576750E-1,9.321057005E-4,2.796316985E-3,-1.198421582E-3,3.181890005E-3
1.842662160E-1,-1.331579551E-4,2.796316985E-3,-2.263685223E-3,3.600193121E-3
1.867747580E-1,-1.331579551E-4,2.796316985E-3,-1.198421582E-3,3.045214936E-3
1.892833000E-1,1.997369342E-3,1.731053460E-3,-2.263685223E-3,3.479985798E-3
1.917918410E-1,9.321057005E-4,1.731053460E-3,-1.331579551E-4,1.970557830E-3
1.943003830E-1,9.321057005E-4,1.731053460E-3,9.321057005E-4,2.175818962E-3
1.968089250E-1,9.321057005E-4,2.796316985E-3,9.321057005E-4,3.091444768E-3
1.993174660E-1,-1.331579551E-4,2.796316985E-3,-1.331579551E-4,2.802650667E-3
2.018260080E-1,-1.331579551E-4,1.731053460E-3,-1.198421582E-3,2.109618783E-3
2.043345500E-1,-1.331579551E-4,2.796316985E-3,-1.198421582E-3,3.045214936E-3
2.068430910E-1,-1.331579551E-4,2.796316985E-3,-1.331579551E-4,2.802650667E-3
2.093516330E-1,-1.331579551E-4,1.731053460E-3,9.321057005E-4,1.970557830E-3
2.118601750E-1,-1.331579551E-4,2.796316985E-3,9.321057005E-4,2.950583122E-3
2.143687160E-1,-1.331579551E-4,1.731053460E-3,-1.331579551E-4,1.741266253E-3
2.168772580E-1,-1.331579551E-4,1.731053460E-3,9.321057005E-4,1.970557830E-3
2.193858000E-1,-1.331579551E-4,2.796316985E-3,9.321057005E-4,2.950583122E-3
2.218943410E-1,-1.198421582E-3,2.796316985E-3,-1.198421582E-3,3.269834439E-3
2.244028830E-1,9.321057005E-4,2.796316985E-3,-1.198421582E-3,3.181890005E-3
2.269114250E-1,-1.331579551E-4,1.731053460E-3,-2.263685223E-3,2.852814034E-3
2.294199660E-1,-1.331579551E-4,1.731053460E-3,-1.198421582E-3,2.109618783E-3
2.319285080E-1,9.321057005E-4,1.731053460E-3,9.321057005E-4,2.175818962E-3
2.344370500E-1,9.321057005E-4,1.731053460E-3,9.321057005E-4,2.175818962E-3
2.369455910E-1,1.997369342E-3,1.731053460E-3,-1.198421582E-3,2.902110380E-3
2.394541330E-1,-1.331579551E-4,2.796316985E-3,-1.331579551E-4,2.802650667E-3
2.419626750E-1,-1.198421582E-3,2.796316985E-3,9.321057005E-4,3.181890005E-3
2.444712160E-1,-1.198421582E-3,1.731053460E-3,-1.198421582E-3,2.422596677E-3
2.469797580E-1,-1.331579551E-4,1.731053460E-3,-1.198421582E-3,2.109618783E-3
2.494883000E-1,9.321057005E-4,2.796316985E-3,-1.331579551E-4,2.950583122E-3
2.519968410E-1,-1.331579551E-4,3.861580743E-3,9.321057005E-4,3.974714821E-3
2.545053830E-1,-1.331579551E-4,2.796316985E-3,-1.331579551E-4,2.802650667E-3
2.570139250E-1,1.997369342E-3,1.731053460E-3,9.321057005E-4,2.802650782E-3
2.595224660E-1,9.321057005E-4,1.731053460E-3,-1.331579551E-4,1.970557830E-3
2.620310080E-1,9.321057005E-4,1.731053460E-3,-1.331579551E-4,1.970557830E-3
2.645395500E-1,9.321057005E-4,1.731053460E-3,-1.331579551E-4,1.970557830E-3
2.670480910E-1,-1.331579551E-4,1.731053460E-3,-1.331579551E-4,1.741266253E-3
2.695566330E-1,-1.198421582E-3,6.657897611E-4,-1.331579551E-4,1.377396578E-3
2.720651750E-1,-1.198421582E-3,6.657897611E-4,9.321057005E-4,1.657803164E-3
2.745737160E-1,-1.331579551E-4,-3.994738800E-4,-1.331579551E-4,4.416349882E-4
2.770822580E-1,-1.331579551E-4,1.731053460E-3,-1.331579551E-4,1.741266253E-3
2.795908000E-1,-1.331579551E-4,2.796316985E-3,-1.198421582E-3,3.045214936E-3
2.820993410E-1,-1.331579551E-4,2.796316985E-3,-1.331579551E-4,2.802650667E-3
2.846078830E-1,-1.331579551E-4,2.796316985E-3,9.321057005E-4,2.950583122E-3
2.871164250E-1,-1.331579551E-4,6.657897611E-4,1.997369342E-3,2.109618765E-3
2.896249660E-1,-1.331579551E-4,1.731053460E-3,9.321057005E-4,1.970557830E-3
2.921335080E-1,-1.331579551E-4,3.861580743E-3,-1.331579551E-4,3.866169669E-3
2.946420500E-1,9.321057005E-4,3.861580743E-3,9.321057005E-4,4.080373501E-3
2.971505910E-1,9.321057005E-4,3.861580743E-3,-1.198421582E-3,4.149318155E-3
2.996591330E-1,9.321057005E-4,2.796316985E-3,-1.331579551E-4,2.950583122E-3
3.021676750E-1,9.321057005E-4,1.731053460E-3,-1.331579551E-4,1.970557830E-3
3.046762160E-1,-1.198421582E-3,3.861580743E-3,-1.331579551E-4,4.045460562E-3
3.071847580E-1,1.997369342E-3,6.657897611E-4,9.321057005E-4,2.302516304E-3
3.096933000E-1,-1.331579551E-4,2.796316985E-3,-1.331579551E-4,2.802650667E-3
3.122018410E-1,-1.331579551E-4,6.657897611E-4,-1.331579551E-4,6.919090172E-4
3.147103830E-1,-1.331579551E-4,6.657897611E-4,-1.331579551E-4,6.919090172E-4
3.172189250E-1,9.321057005E-4,2.796316985E-3,9.321057005E-4,3.091444768E-3
3.197274660E-1,9.321057005E-4,2.796316985E-3,-1.331579551E-4,2.950583122E-3
3.222360080E-1,9.321057005E-4,6.657897611E-4,-1.331579551E-4,1.153181722E-3
3.247445500E-1,-1.331579551E-4,1.731053460E-3,9.321057005E-4,1.970557830E-3
3.272530910E-1,-1.331579551E-4,3.861580743E-3,-1.331579551E-4,3.866169669E-3
3.297616330E-1,-1.331579551E-4,2.796316985E-3,-1.331579551E-4,2.802650667E-3
3.322701750E-1,-1.331579551E-4,1.731053460E-3,9.321057005E-4,1.970557830E-3
3.347787160E-1,-2.263685223E-3,6.657897611E-4,1.997369342E-3,3.091444821E-3
3.372872580E-1,-1.331579551E-4,6.657897611E-4,-1.331579551E-4,6.919090172E-4
3.397958000E-1,-1.331579551E-4,6.657897611E-4,-1.331579551E-4,6.919090172E-4
3.423043410E-1,-1.331579551E-4,1.731053460E-3,-1.331579551E-4,1.741266253E-3
3.448128830E-1,9.321057005E-4,6.657897611E-4,-1.198421582E-3,1.657803164E-3
3.473214250E-1,9.321057005E-4,2.796316985E-3,-1.331579551E-4,2.950583122E-3
3.498299660E-1,-1.331579551E-4,2.796316985E-3,9.321057005E-4,2.950583122E-3
3.523385080E-1,-1.331579551E-4,1.731053460E-3,-1.331579551E-4,1.741266253E-3
3.548470500E-1,9.321057005E-4,2.796316985E-3,-2.263685223E-3,3.716514564E-3
3.573555910E-1,1.997369342E-3,2.796316985E-3,-1.198421582E-3,3.639380065E-3
3.598641330E-1,9.321057005E-4,2.796316985E-3,-1.198421582E-3,3.181890005E-3
3.623726750E-1,9.321057005E-4,2.796316985E-3,-1.331579551E-4,2.950583122E-3
3.648812160E-1,9.321057005E-4,3.861580743E-3,9.321057005E-4,4.080373501E-3
3.673897580E-1,1.997369342E-3,2.796316985E-3,9.321057005E-4,3.560574954E-3
3.698983000E-1,1.997369342E-3,2.796316985E-3,-1.198421582E-3,3.639380065E-3
3.724068410E-1,9.321057005E-4,2.796316985E-3,-2.263685223E-3,3.716514564E-3
3.749153830E-1,9.321057005E-4,1.731053460E-3,-1.198421582E-3,2.302516321E-3
3.774239250E-1,-1.331579551E-4,6.657897611E-4,-1.198421582E-3,1.377396578E-3
3.799324660E-1,-1.331579551E-4,-1.464737463E-3,-1.198421582E-3,1.897208782E-3
3.824410080E-1,-1.198421582E-3,-1.464737463E-3,-1.331579551E-4,1.897208782E-3
3.849495500E-1,-1.198421582E-3,-3.994738800E-4,-1.331579551E-4,1.270245925E-3
3.874580910E-1,-1.331579551E-4,6.657897611E-4,-1.198421582E-3,1.377396578E-3
3.899666330E-1,9.321057005E-4,1.731053460E-3,-1.331579551E-4,1.970557830E-3
3.924751750E-1,9.321057005E-4,2.796316985E-3,-1.331579551E-4,2.950583122E-3
3.949837160E-1,9.321057005E-4,1.731053460E-3,9.321057005E-4,2.175818962E-3
3.974922580E-1,-1.331579551E-4,1.731053460E-3,-1.331579551E-4,1.741266253E-3
4.000008000E-1,-1.331579551E-4,2.796316985E-3,-1.331579551E-4,2.802650667E-3
4.025093410E-1,-1.331579551E-4,2.796316985E-3,-1.198421582E-3,3.045214936E-3
4.050178830E-1,-1.331579551E-4,3.861580743E-3,-1.198421582E-3,4.045460562E-3
4.075264250E-1,9.321057005E-4,3.861580743E-3,-1.331579551E-4,3.974714821E-3
4.100349660E-1,-1.331579551E-4,3.861580743E-3,-1.331579551E-4,3.866169669E-3
4.125435080E-1,9.321057005E-4,2.796316985E-3,-1.198421582E-3,3.181890005E-3
4.150520500E-1,-1.331579551E-4,2.796316985E-3,-1.198421582E-3,3.045214936E-3
4.175605910E-1,-1.331579551E-4,2.796316985E-3,-1.198421582E-3,3.045214936E-3
4.200691330E-1,-1.331579551E-4,2.796316985E-3,-1.198421582E-3,3.045214936E-3
4.225776750E-1,-1.198421582E-3,2.796316985E-3,-1.331579551E-4,3.045214936E-3
4.250862160E-1,-1.198421582E-3,1.731053460E-3,9.321057005E-4,2.302516321E-3
4.275947580E-1,-1.331579551E-4,6.657897611E-4,-1.331579551E-4,6.919090172E-4
4.301033000E-1,-1.331579551E-4,6.657897611E-4,9.321057005E-4,1.153181722E-3
4.326118410E-1,-1.331579551E-4,1.731053460E-3,-1.198421582E-3,2.109618783E-3
4.351203830E-1,-1.198421582E-3,1.731053460E-3,-1.198421582E-3,2.422596677E-3
4.376289250E-1,-1.331579551E-4,6.657897611E-4,-1.198421582E-3,1.377396578E-3
4.401374660E-1,9.321057005E-4,1.731053460E-3,-1.331579551E-4,1.970557830E-3
4.426460080E-1,9.321057005E-4,2.796316985E-3,-1.331579551E-4,2.950583122E-3
4.451545500E-1,9.321057005E-4,6.657897611E-4,-1.331579551E-4,1.153181722E-3
4.476630910E-1,-1.331579551E-4,6.657897611E-4,-1.198421582E-3,1.377396578E-3
4.501716330E-1,9.321057005E-4,2.796316985E-3,-1.198421582E-3,3.181890005E-3
4.526801750E-1,9.321057005E-4,1.731053460E-3,-1.331579551E-4,1.970557830E-3
4.551887160E-1,-1.331579551E-4,2.796316985E-3,9.321057005E-4,2.950583122E-3
4.576972580E-1,9.321057005E-4,2.796316985E-3,-1.331579551E-4,2.950583122E-3
4.602058000E-1,-1.331579551E-4,2.796316985E-3,-1.331579551E-4,2.802650667E-3
4.627143410E-1,9.321057005E-4,2.796316985E-3,-1.331579551E-4,2.950583122E-3
4.652228830E-1,-1.331579551E-4,6.657897611E-4,-2.263685223E-3,2.363319241E-3
4.677314250E-1,-1.331579551E-4,-3.994738800E-4,-1.198421582E-3,1.270245925E-3
4.702399660E-1,-1.331579551E-4,-1.464737463E-3,-1.198421582E-3,1.897208782E-3
4.727485080E-1,-1.331579551E-4,-3.994738800E-4,-1.331579551E-4,4.416349882E-4
4.752570500E-1,-1.331579551E-4,-3.994738800E-4,-1.331579551E-4,4.416349882E-4
4.777655910E-1,-1.198421582E-3,-3.994738800E-4,-1.331579551E-4,1.270245925E-3
4.802741330E-1,-1.331579551E-4,6.657897611E-4,-1.198421582E-3,1.377396578E-3
4.827826750E-1,-1.198421582E-3,1.731053460E-3,-1.198421582E-3,2.422596677E-3
4.852912160E-1,-1.198421582E-3,2.796316985E-3,-1.331579551E-4,3.045214936E-3
4.877997580E-1,-1.331579551E-4,2.796316985E-3,9.321057005E-4,2.950583122E-3
4.903083000E-1,9.321057005E-4,1.731053460E-3,9.321057005E-4,2.175818962E-3
4.928168410E-1,-1.331579551E-4,1.731053460E-3,-1.331579551E-4,1.741266253E-3
4.953253830E-1,-1.331579551E-4,1.731053460E-3,-1.331579551E-4,1.741266253E-3
4.978339250E-1,-1.331579551E-4,3.861580743E-3,-1.331579551E-4,3.866169669E-3
5.003424660E-1,-1.331579551E-4,3.861580743E-3,-1.331579551E-4,3.866169669E-3
5.028510080E-1,9.321057005E-4,2.796316985E-3,-1.331579551E-4,2.950583122E-3
5.053595500E-1,-1.331579551E-4,2.796316985E-3,-1.331579551E-4,2.802650667E-3
5.078680910E-1,9.321057005E-4,2.796316985E-3,-1.331579551E-4,2.950583122E-3
5.103766330E-1,-1.331579551E-4,2.796316985E-3,-1.198421582E-3,3.045214936E-3
5.128851750E-1,9.321057005E-4,2.796316985E-3,-1.331579551E-4,2.950583122E-3
5.153937160E-1,9.321057005E-4,2.796316985E-3,-1.331579551E-4,2.950583122E-3
5.179022580E-1,9.321057005E-4,1.731053460E-3,-1.331579551E-4,1.970557830E-3
5.204108000E-1,9.321057005E-4,2.796316985E-3,9.321057005E-4,3.091444768E-3
5.229193410E-1,-1.331579551E-4,1.731053460E-3,9.321057005E-4,1.970557830E-3
5.254278830E-1,-1.331579551E-4,1.731053460E-3,-1.331579551E-4,1.741266253E-3
5.279364250E-1,-1.331579551E-4,1.731053460E-3,-1.331579551E-4,1.741266253E-3
5.304449660E-1,-1.331579551E-4,6.657897611E-4,-1.331579551E-4,6.919090172E-4
5.329535080E-1,9.321057005E-4,6.657897611E-4,-1.198421582E-3,1.657803164E-3
5.354620500E-1,-1.331579551E-4,-3.994738800E-4,-1.198421582E-3,1.270245925E-3
5.379705910E-1,9.321057005E-4,-1.464737463E-3,-1.198421582E-3,2.109618724E-3
5.404791330E-1,-1.331579551E-4,-1.464737463E-3,-1.198421582E-3,1.897208782E-3
5.429876750E-1,-1.331579551E-4,6.657897611E-4,-1.198421582E-3,1.377396578E-3
5.454962160E-1,-1.331579551E-4,6.657897611E-4,-1.331579551E-4,6.919090172E-4
5.480047580E-1,9.321057005E-4,1.731053460E-3,-1.331579551E-4,1.970557830E-3
5.505133520E-1,-1.331579551E-4,2.796316985E-3,-1.198421582E-3,3.045214936E-3
5.530219460E-1,-1.331579551E-4,3.861580743E-3,-1.331579551E-4,3.866169669E-3
5.555305390E-1,9.321057005E-4,2.796316985E-3,9.321057005E-4,3.091444768E-3
5.580391330E-1,9.321057005E-4,2.796316985E-3,-1.198421582E-3,3.181890005E-3
5.605477270E-1,9.321057005E-4,1.731053460E-3,-1.198421582E-3,2.302516321E-3
5.630563210E-1,-1.331579551E-4,3.861580743E-3,-1.198421582E-3,4.045460562E-3
5.655649140E-1,-1.331579551E-4,3.861580743E-3,-1.198421582E-3,4.045460562E-3
5.680735080E-1,-1.331579551E-4,2.796316985E-3,9.321057005E-4,2.950583122E-3
5.705821020E-1,-1.198421582E-3,1.731053460E-3,-1.331579551E-4,2.109618783E-3
5.730906960E-1,-1.331579551E-4,1.731053460E-3,-1.198421582E-3,2.109618783E-3
5.755992890E-1,-1.331579551E-4,1.731053460E-3,-1.331579551E-4,1.741266253E-3
5.781078830E-1,-1.331579551E-4,1.731053460E-3,-1.331579551E-4,1.741266253E-3
5.806164770E-1,-1.331579551E-4,1.731053460E-3,-1.331579551E-4,1.741266253E-3
5.831250710E-1,9.321057005E-4,1.731053460E-3,9.321057005E-4,2.175818962E-3
5.856336640E-1,9.321057005E-4,6.657897611E-4,9.321057005E-4,1.476793174E-3
5.881422580E-1,-1.198421582E-3,6.657897611E-4,-1.331579551E-4,1.377396578E-3
5.906508520E-1,-1.198421582E-3,6.657897611E-4,-1.331579551E-4,1.377396578E-3
5.931594460E-1,-1.198421582E-3,1.731053460E-3,9.321057005E-4,2.302516321E-3
5.956680390E-1,-1.331579551E-4,1.731053460E-3,-1.198421582E-3,2.109618783E-3
5.981766330E-1,9.321057005E-4,2.796316985E-3,-2.263685223E-3,3.716514564E-3
6.006852270E-1,1.997369342E-3,2.796316985E-3,-1.198421582E-3,3.639380065E-3
6.031938210E-1,9.321057005E-4,2.796316985E-3,9.321057005E-4,3.091444768E-3
6.057024140E-1,9.321057005E-4,2.796316985E-3,-1.331579551E-4,2.950583122E-3
6.082110080E-1,9.321057005E-4,1.731053460E-3,-1.331579551E-4,1.970557830E-3
6.107196020E-1,-1.331579551E-4,1.731053460E-3,9.321057005E-4,1.970557830E-3
6.132281960E-1,-1.331579551E-4,2.796316985E-3,-1.331579551E-4,2.802650667E-3
6.157367890E-1,-1.331579551E-4,1.731053460E-3,9.321057005E-4,1.970557830E-3
6.182453830E-1,-1.198421582E-3,1.731053460E-3,9.321057005E-4,2.302516321E-3
6.207539250E-1,-1.331579551E-4,1.731053460E-3,-1.331579551E-4,1.741266253E-3
6.232624660E-1,-1.331579551E-4,1.731053460E-3,9.321057005E-4,1.970557830E-3
6.257710080E-1,-1.331579551E-4,1.731053460E-3,9.321057005E-4,1.970557830E-3
6.282795500E-1,-1.331579551E-4,1.731053460E-3,9.321057005E-4,1.970557830E-3
6.307880910E-1,-1.331579551E-4,1.731053460E-3,-1.331579551E-4,1.741266253E-3
6.332966330E-1,-1.198421582E-3,1.731053460E-3,-1.198421582E-3,2.422596677E-3
6.358051750E-1,-1.331579551E-4,1.731053460E-3,-1.198421582E-3,2.109618783E-3
6.383137160E-1,-1.331579551E-4,1.731053460E-3,-1.198421582E-3,2.109618783E-3
6.408222580E-1,-1.331579551E-4,2.796316985E-3,-1.198421582E-3,3.045214936E-3
6.433308000E-1,9.321057005E-4,6.657897611E-4,9.321057005E-4,1.476793174E-3
6.458393410E-1,-1.331579551E-4,6.657897611E-4,9.321057005E-4,1.153181722E-3
6.483478830E-1,-1.331579551E-4,6.657897611E-4,9.321057005E-4,1.153181722E-3
6.508564250E-1,-1.331579551E-4,6.657897611E-4,9.321057005E-4,1.153181722E-3
6.533649660E-1,-1.331579551E-4,6.657897611E-4,-1.198421582E-3,1.377396578E-3
6.558735080E-1,-1.331579551E-4,1.731053460E-3,-1.198421582E-3,2.109618783E-3
6.583820500E-1,-1.198421582E-3,1.731053460E-3,-1.331579551E-4,2.109618783E-3
6.608905910E-1,-1.331579551E-4,1.731053460E-3,9.321057005E-4,1.970557830E-3
6.633991330E-1,-1.331579551E-4,1.731053460E-3,-1.331579551E-4,1.741266253E-3
6.659076750E-1,9.321057005E-4,1.731053460E-3,9.321057005E-4,2.175818962E-3
6.684162160E-1,-1.331579551E-4,6.657897611E-4,9.321057005E-4,1.153181722E-3
6.709247580E-1,-1.331579551E-4,6.657897611E-4,-1.331579551E-4,6.919090172E-4
6.734333000E-1,-1.331579551E-4,6.657897611E-4,9.321057005E-4,1.153181722E-3
6.759418410E-1,9.321057005E-4,6.657897611E-4,1.997369342E-3,2.302516304E-3
6.784503830E-1,9.321057005E-4,1.731053460E-3,9.321057005E-4,2.175818962E-3
6.809589250E-1,-1.331579551E-4,1.731053460E-3,-1.331579551E-4,1.741266253E-3
6.834674660E-1,-1.331579551E-4,6.657897611E-4,-1.331579551E-4,6.919090172E-4
6.859760080E-1,-1.331579551E-4,6.657897611E-4,1.997369342E-3,2.109618765E-3
6.884845500E-1,-1.331579551E-4,6.657897611E-4,-1.331579551E-4,6.919090172E-4
6.909930910E-1,-1.331579551E-4,2.796316985E-3,-1.331579551E-4,2.802650667E-3
6.935016330E-1,-1.331579551E-4,2.796316985E-3,-1.331579551E-4,2.802650667E-3
6.960101750E-1,-1.331579551E-4,1.731053460E-3,-1.331579551E-4,1.741266253E-3
6.985187160E-1,-1.331579551E-4,1.731053460E-3,9.321057005E-4,1.970557830E-3
7.010272580E-1,-1.331579551E-4,1.731053460E-3,9.321057005E-4,1.970557830E-3
7.035358000E-1,-1.331579551E-4,1.731053460E-3,-1.331579551E-4,1.741266253E-3
7.060443410E-1,-1.331579551E-4,2.796316985E-3,-1.198421582E-3,3.045214936E-3
7.085528830E-1,-1.331579551E-4,3.861580743E-3,-1.331579551E-4,3.866169669E-3
7.110614250E-1,9.321057005E-4,2.796316985E-3,9.321057005E-4,3.091444768E-3
7.135699660E-1,9.321057005E-4,6.657897611E-4,9.321057005E-4,1.476793174E-3
7.160785080E-1,9.321057005E-4,6.657897611E-4,9.321057005E-4,1.476793174E-3
7.185870500E-1,9.321057005E-4,1.731053460E-3,9.321057005E-4,2.175818962E-3
7.210955910E-1,-1.331579551E-4,1.731053460E-3,-1.198421582E-3,2.109618783E-3
7.236041330E-1,1.997369342E-3,1.731053460E-3,-1.198421582E-3,2.902110380E-3
7.261126750E-1,9.321057005E-4,2.796316985E-3,-1.331579551E-4,2.950583122E-3
7.286212160E-1,-1.331579551E-4,1.731053460E-3,9.321057005E-4,1.970557830E-3
7.311297580E-1,9.321057005E-4,1.731053460E-3,9.321057005E-4,2.175818962E-3
7.336383000E-1,-1.331579551E-4,2.796316985E-3,9.321057005E-4,2.950583122E-3
7.361468410E-1,-1.331579551E-4,2.796316985E-3,-1.331579551E-4,2.802650667E-3
7.386553830E-1,9.321057005E-4,2.796316985E-3,-1.198421582E-3,3.181890005E-3
7.411639250E-1,9.321057005E-4,2.796316985E-3,9.321057005E-4,3.091444768E-3
7.436724660E-1,9.321057005E-4,1.731053460E-3,-1.198421582E-3,2.302516321E-3
7.461810080E-1,-1.331579551E-4,6.657897611E-4,-1.198421582E-3,1.377396578E-3
7.486895500E-1,9.321057005E-4,2.796316985E-3,-1.331579551E-4,2.950583122E-3
7.511980910E-1,9.321057005E-4,3.861580743E-3,-1.331579551E-4,3.974714821E-3
7.537066330E-1,9.321057005E-4,2.796316985E-3,-1.331579551E-4,2.950583122E-3
7.562151750E-1,9.321057005E-4,2.796316985E-3,9.321057005E-4,3.091444768E-3
7.587237160E-1,9.321057005E-4,2.796316985E-3,9.321057005E-4,3.091444768E-3
7.612322580E-1,-1.331579551E-4,1.731053460E-3,-1.331579551E-4,1.741266253E-3
7.637408000E-1,-1.331579551E-4,1.731053460E-3,-1.331579551E-4,1.741266253E-3
7.662493410E-1,-1.331579551E-4,3.861580743E-3,-1.198421582E-3,4.045460562E-3
7.687578830E-1,-1.331579551E-4,4.926844500E-3,-2.263685223E-3,5.423633335E-3
7.712664250E-1,-1.331579551E-4,3.861580743E-3,-1.198421582E-3,4.045460562E-3
7.737749660E-1,-1.331579551E-4,2.796316985E-3,-1.198421582E-3,3.045214936E-3
7.762835080E-1,9.321057005E-4,1.731053460E-3,-1.198421582E-3,2.302516321E-3
7.787920500E-1,9.321057005E-4,1.731053460E-3,-2.263685223E-3,2.998272487E-3
7.813005910E-1,-1.331579551E-4,6.657897611E-4,-1.198421582E-3,1.377396578E-3
7.838091330E-1,-1.331579551E-4,1.731053460E-3,-1.198421582E-3,2.109618783E-3
7.863176750E-1,9.321057005E-4,1.731053460E-3,9.321057005E-4,2.175818962E-3
7.888262160E-1,9.321057005E-4,2.796316985E-3,9.321057005E-4,3.091444768E-3
7.913347580E-1,-1.331579551E-4,6.657897611E-4,9.321057005E-4,1.153181722E-3
7.938433000E-1,9.321057005E-4,6.657897611E-4,-1.331579551E-4,1.153181722E-3
7.963518410E-1,-1.331579551E-4,6.657897611E-4,-1.331579551E-4,6.919090172E-4
7.988603830E-1,9.321057005E-4,6.657897611E-4,9.321057005E-4,1.476793174E-3
8.013689250E-1,9.321057005E-4,6.657897611E-4,9.321057005E-4,1.476793174E-3
8.038774660E-1,-1.331579551E-4,1.731053460E-3,-1.331579551E-4,1.741266253E-3
8.063860080E-1,-1.331579551E-4,2.796316985E-3,-1.331579551E-4,2.802650667E-3
8.088945500E-1,-1.198421582E-3,1.731053460E-3,-1.198421582E-3,2.422596677E-3
8.114030910E-1,-1.198421582E-3,1.731053460E-3,-1.198421582E-3,2.422596677E-3
8.139116330E-1,-1.331579551E-4,1.731053460E-3,-1.198421582E-3,2.109618783E-3
8.164201750E-1,9.321057005E-4,6.657897611E-4,-1.331579551E-4,1.153181722E-3
8.189287160E-1,1.997369342E-3,1.731053460E-3,9.321057005E-4,2.802650782E-3
8.214372580E-1,1.997369342E-3,1.731053460E-3,9.321057005E-4,2.802650782E-3
8.239458000E-1,-1.331579551E-4,6.657897611E-4,9.321057005E-4,1.153181722E-3
8.264543410E-1,-1.331579551E-4,6.657897611E-4,-1.198421582E-3,1.377396578E-3
8.289628830E-1,-1.331579551E-4,6.657897611E-4,-1.198421582E-3,1.377396578E-3
8.314714250E-1,-1.331579551E-4,1.731053460E-3,-1.198421582E-3,2.109618783E-3
8.339799660E-1,9.321057005E-4,1.731053460E-3,-2.263685223E-3,2.998272487E-3
8.364885080E-1,9.321057005E-4,6.657897611E-4,-2.263685223E-3,2.536999769E-3
8.389970500E-1,-1.331579551E-4,6.657897611E-4,-1.198421582E-3,1.377396578E-3
8.415055910E-1,-1.331579551E-4,-3.994738800E-4,-1.331579551E-4,4.416349882E-4
8.440141330E-1,-1.331579551E-4,6.657897611E-4,-1.331579551E-4,6.919090172E-4
8.465226750E-1,-1.331579551E-4,6.657897611E-4,-1.331579551E-4,6.919090172E-4
8.490312160E-1,-1.331579551E-4,2.796316985E-3,-1.331579551E-4,2.802650667E-3
8.515397580E-1,9.321057005E-4,3.861580743E-3,9.321057005E-4,4.080373501E-3
8.540483000E-1,-1.331579551E-4,2.796316985E-3,-1.331579551E-4,2.802650667E-3
8.565568410E-1,-1.331579551E-4,2.796316985E-3,-1.331579551E-4,2.802650667E-3
8.590653830E-1,-1.198421582E-3,2.796316985E-3,-1.198421582E-3,3.269834439E-3
8.615739250E-1,-1.331579551E-4,1.731053460E-3,-1.198421582E-3,2.109618783E-3
8.640824660E-1,9.321057005E-4,6.657897611E-4,-1.331579551E-4,1.153181722E-3
8.665910080E-1,9.321057005E-4,3.861580743E-3,-1.331579551E-4,3.974714821E-3
8.690995500E-1,-1.331579551E-4,3.861580743E-3,-1.198421582E-3,4.045460562E-3
8.716080910E-1,-1.331579551E-4,1.731053460E-3,-1.198421582E-3,2.109618783E-3
8.741166330E-1,9.321057005E-4,1.731053460E-3,-1.198421582E-3,2.302516321E-3
8.766251750E-1,9.321057005E-4,1.731053460E-3,-1.331579551E-4,1.970557830E-3
8.791337160E-1,9.321057005E-4,1.731053460E-3,-1.331579551E-4,1.970557830E-3
8.816422580E-1,9.321057005E-4,1.731053460E-3,9.321057005E-4,2.175818962E-3
8.841508000E-1,9.321057005E-4,-3.994738800E-4,9.321057005E-4,1.377396622E-3
8.866593410E-1,1.997369342E-3,1.731053460E-3,-1.331579551E-4,2.646462055E-3
8.891678830E-1,9.321057005E-4,2.796316985E-3,-1.331579551E-4,2.950583122E-3
8.916764250E-1,9.321057005E-4,2.796316985E-3,-1.331579551E-4,2.950583122E-3
8.941849660E-1,9.321057005E-4,3.861580743E-3,-1.331579551E-4,3.974714821E-3
8.966935080E-1,9.321057005E-4,4.926844500E-3,9.321057005E-4,5.100141057E-3
8.992020500E-1,9.321057005E-4,3.861580743E-3,-1.331579551E-4,3.974714821E-3
9.017105910E-1,9.321057005E-4,2.796316985E-3,-1.331579551E-4,2.950583122E-3
9.042191330E-1,-1.331579551E-4,1.731053460E-3,-1.331579551E-4,1.741266253E-3
9.067276750E-1,9.321057005E-4,1.731053460E-3,-1.331579551E-4,1.970557830E-3
9.092362160E-1,9.321057005E-4,2.796316985E-3,-1.331579551E-4,2.950583122E-3
9.117447580E-1,-1.331579551E-4,2.796316985E-3,-1.198421582E-3,3.045214936E-3
9.142533000E-1,-1.331579551E-4,2.796316985E-3,-1.198421582E-3,3.045214936E-3
9.167618410E-1,-1.331579551E-4,2.796316985E-3,-1.331579551E-4,2.802650667E-3
9.192703830E-1,-1.198421582E-3,2.796316985E-3,-1.331579551E-4,3.045214936E-3
9.217789250E-1,-1.198421582E-3,1.731053460E-3,9.321057005E-4,2.302516321E-3
9.242874660E-1,-1.331579551E-4,1.731053460E-3,-1.331579551E-4,1.741266253E-3
9.267960080E-1,9.321057005E-4,6.657897611E-4,-1.331579551E-4,1.153181722E-3
9.293045500E-1,9.321057005E-4,1.731053460E-3,9.321057005E-4,2.175818962E-3
9.318130910E-1,-1.331579551E-4,2.796316985E-3,9.321057005E-4,2.950583122E-3
9.343216330E-1,9.321057005E-4,3.861580743E-3,-1.331579551E-4,3.974714821E-3
9.368301750E-1,-1.331579551E-4,1.731053460E-3,-1.198421582E-3,2.109618783E-3
9.393387160E-1,-1.331579551E-4,1.731053460E-3,-1.198421582E-3,2.109618783E-3
9.418472580E-1,-1.331579551E-4,1.731053460E-3,-1.198421582E-3,2.109618783E-3
9.443558000E-1,-1.331579551E-4,1.731053460E-3,-1.198421582E-3,2.109618783E-3
9.468643410E-1,-1.331579551E-4,6.657897611E-4,-1.198421582E-3,1.377396578E-3
9.493728830E-1,9.321057005E-4,-3.994738800E-4,-1.198421582E-3,1.569909139E-3
9.518814250E-1,1.997369342E-3,-3.994738800E-4,-1.331579551E-4,2.041272816E-3
9.543899660E-1,-1.331579551E-4,1.731053460E-3,9.321057005E-4,1.970557830E-3
9.568985080E-1,-1.331579551E-4,1.731053460E-3,-1.331579551E-4,1.741266253E-3
9.594070500E-1,-1.331579551E-4,6.657897611E-4,9.321057005E-4,1.153181722E-3
9.619155910E-1,-1.331579551E-4,1.731053460E-3,1.997369342E-3,2.646462055E-3
9.644241330E-1,-1.331579551E-4,2.796316985E-3,9.321057005E-4,2.950583122E-3
9.669326750E-1,9.321057005E-4,2.796316985E-3,-1.331579551E-4,2.950583122E-3
9.694412160E-1,-1.331579551E-4,2.796316985E-3,-1.331579551E-4,2.802650667E-3
9.719497580E-1,-1.331579551E-4,2.796316985E-3,-1.331579551E-4,2.802650667E-3
9.744583000E-1,9.321057005E-4,2.796316985E-3,-1.198421582E-3,3.181890005E-3
9.769668410E-1,9.321057005E-4,3.861580743E-3,-1.198421582E-3,4.149318155E-3
9.794753830E-1,-1.331579551E-4,1.731053460E-3,-1.331579551E-4,1.741266253E-3
9.819839250E-1,-1.331579551E-4,1.731053460E-3,-1.198421582E-3,2.109618783E-3
9.844924660E-1,-1.198421582E-3,2.796316985E-3,-1.198421582E-3,3.269834439E-3
9.870010080E-1,-1.331579551E-4,2.796316985E-3,-1.331579551E-4,2.802650667E-3
9.895095500E-1,-1.331579551E-4,2.796316985E-3,-1.331579551E-4,2.802650667E-3
9.920180910E-1,-1.331579551E-4,2.796316985E-3,-1.198421582E-3,3.045214936E-3
9.945266330E-1,-1.331579551E-4,2.796316985E-3,-1.198421582E-3,3.045214936E-3
9.970351750E-1,-1.331579551E-4,2.796316985E-3,-1.198421582E-3,3.045214936E-3
9.995437160E-1,-1.331579551E-4,3.861580743E-3,-2.263685223E-3,4.478147793E-3
1.002052258E0,-1.198421582E-3,3.861580743E-3,-2.263685223E-3,4.633820336E-3
1.004560800E0,-1.331579551E-4,2.796316985E-3,-1.198421582E-3,3.045214936E-3
1.007069341E0,9.321057005E-4,2.796316985E-3,-1.331579551E-4,2.950583122E-3
1.009577883E0,-1.331579551E-4,2.796316985E-3,-1.331579551E-4,2.802650667E-3
1.012086425E0,-1.331579551E-4,1.731053460E-3,-1.331579551E-4,1.741266253E-3
1.014594966E0,9.321057005E-4,6.657897611E-4,9.321057005E-4,1.476793174E-3
1.017103508E0,9.321057005E-4,2.796316985E-3,9.321057005E-4,3.091444768E-3
1.019612050E0,9.321057005E-4,2.796316985E-3,-1.331579551E-4,2.950583122E-3
1.022120591E0,-1.331579551E-4,2.796316985E-3,-1.331579551E-4,2.802650667E-3
1.024629133E0,-1.331579551E-4,2.796316985E-3,-1.198421582E-3,3.045214936E-3
1.027137675E0,-1.331579551E-4,1.731053460E-3,-1.331579551E-4,1.741266253E-3
1.029646216E0,-1.331579551E-4,6.657897611E-4,9.321057005E-4,1.153181722E-3
1.032154758E0,-1.331579551E-4,6.657897611E-4,-1.198421582E-3,1.377396578E-3
1.034663300E0,-1.331579551E-4,-3.994738800E-4,-1.331579551E-4,4.416349882E-4
1.037171841E0,-1.331579551E-4,6.657897611E-4,9.321057005E-4,1.153181722E-3
1.039680383E0,-1.331579551E-4,1.731053460E-3,-1.198421582E-3,2.109618783E-3
1.042188925E0,9.321057005E-4,1.731053460E-3,-2.263685223E-3,2.998272487E-3
1.044697466E0,-1.331579551E-4,6.657897611E-4,-1.198421582E-3,1.377396578E-3
1.047206008E0,-1.198421582E-3,1.731053460E-3,-1.198421582E-3,2.422596677E-3
1.049714550E0,-1.331579551E-4,1.731053460E-3,-1.198421582E-3,2.109618783E-3
1.052223091E0,-1.331579551E-4,1.731053460E-3,-1.331579551E-4,1.741266253E-3
1.054731633E0,-1.331579551E-4,1.731053460E-3,-1.331579551E-4,1.741266253E-3
1.057240175E0,-1.331579551E-4,1.731053460E-3,-1.198421582E-3,2.109618783E-3
1.059748716E0,-1.331579551E-4,2.796316985E-3,-1.198421582E-3,3.045214936E-3
1.062257258E0,-1.331579551E-4,2.796316985E-3,-1.331579551E-4,2.802650667E-3
1.064765800E0,-1.198421582E-3,2.796316985E-3,-1.331579551E-4,3.045214936E-3
1.067274341E0,-1.198421582E-3,2.796316985E-3,9.321057005E-4,3.181890005E-3
1.069782883E0,-1.331579551E-4,1.731053460E-3,-1.331579551E-4,1.741266253E-3
1.072291425E0,-1.331579551E-4,6.657897611E-4,-1.331579551E-4,6.919090172E-4
1.074799966E0,-1.331579551E-4,6.657897611E-4,-2.263685223E-3,2.363319241E-3
1.077308508E0,-1.331579551E-4,1.731053460E-3,-1.198421582E-3,2.109618783E-3
1.079817050E0,-1.331579551E-4,6.657897611E-4,-1.198421582E-3,1.377396578E-3
1.082325591E0,-1.331579551E-4,1.731053460E-3,-1.198421582E-3,2.109618783E-3
1.084834133E0,-1.331579551E-4,2.796316985E-3,-1.331579551E-4,2.802650667E-3
1.087342675E0,-1.331579551E-4,2.796316985E-3,-1.331579551E-4,2.802650667E-3
1.089851216E0,9.321057005E-4,1.731053460E-3,9.321057005E-4,2.175818962E-3
1.092359758E0,-1.331579551E-4,1.731053460E-3,9.321057005E-4,1.970557830E-3
1.094868300E0,-1.331579551E-4,6.657897611E-4,9.321057005E-4,1.153181722E-3
1.097376841E0,-1.331579551E-4,1.731053460E-3,9.321057005E-4,1.970557830E-3
1.099885435E0,1.997369342E-3,1.731053460E-3,9.321057005E-4,2.802650782E-3
1.102394029E0,1.997369342E-3,1.731053460E-3,-1.331579551E-4,2.646462055E-3
1.104902623E0,-1.331579551E-4,2.796316985E-3,-1.331579551E-4,2.802650667E-3
1.107411216E0,9.321057005E-4,1.731053460E-3,9.321057005E-4,2.175818962E-3
1.109919810E0,-1.331579551E-4,2.796316985E-3,9.321057005E-4,2.950583122E-3
1.112428404E0,-1.331579551E-4,2.796316985E-3,-1.331579551E-4,2.802650667E-3
1.114936998E0,9.321057005E-4,2.796316985E-3,-1.331579551E-4,2.950583122E-3
1.117445591E0,-1.331579551E-4,2.796316985E-3,-1.331579551E-4,2.802650667E-3
1.119954185E0,-1.331579551E-4,3.861580743E-3,-1.198421582E-3,4.045460562E-3
1.122462779E0,-1.198421582E-3,2.796316985E-3,-1.198421582E-3,3.269834439E-3
1.124971373E0,-1.331579551E-4,1.731053460E-3,-1.331579551E-4,1.741266253E-3
1.127479966E0,-1.331579551E-4,2.796316985E-3,-1.331579551E-4,2.802650667E-3
1.129988560E0,-1.331579551E-4,2.796316985E-3,-1.198421582E-3,3.045214936E-3
1.132497154E0,-1.331579551E-4,1.731053460E-3,-1.198421582E-3,2.109618783E-3
1.135005748E0,-1.331579551E-4,2.796316985E-3,9.321057005E-4,2.950583122E-3
1.137514341E0,-1.331579551E-4,6.657897611E-4,-1.331579551E-4,6.919090172E-4
1.140022935E0,9.321057005E-4,-3.994738800E-4,-1.198421582E-3,1.569909139E-3
1.142531529E0,9.321057005E-4,1.731053460E-3,-1.198421582E-3,2.302516321E-3
1.145040123E0,9.321057005E-4,1.731053460E-3,-1.198421582E-3,2.302516321E-3
1.147548716E0,1.997369342E-3,1.731053460E-3,-1.198421582E-3,2.902110380E-3
1.150057310E0,9.321057005E-4,1.731053460E-3,-1.331579551E-4,1.970557830E-3
1.152565904E0,-1.198421582E-3,6.657897611E-4,-1.331579551E-4,1.377396578E-3
1.155074498E0,-1.331579551E-4,6.657897611E-4,-1.198421582E-3,1.377396578E-3
1.157583091E0,-1.331579551E-4,6.657897611E-4,-1.198421582E-3,1.377396578E-3
1.160091685E0,-1.331579551E-4,2.796316985E-3,-1.331579551E-4,2.802650667E-3
1.162600279E0,-1.331579551E-4,2.796316985E-3,-1.331579551E-4,2.802650667E-3
1.165108873E0,-1.331579551E-4,1.731053460E-3,1.997369342E-3,2.646462055E-3
1.167617466E0,1.997369342E-3,6.657897611E-4,9.321057005E-4,2.302516304E-3
1.170126008E0,9.321057005E-4,2.796316985E-3,9.321057005E-4,3.091444768E-3
1.172634550E0,-1.331579551E-4,2.796316985E-3,9.321057005E-4,2.950583122E-3
1.175143091E0,9.321057005E-4,6.657897611E-4,-1.331579551E-4,1.153181722E-3
1.177651633E0,1.997369342E-3,6.657897611E-4,-1.331579551E-4,2.109618765E-3
1.180160175E0,1.997369342E-3,6.657897611E-4,-1.331579551E-4,2.109618765E-3
1.182668716E0,1.997369342E-3,-3.994738800E-4,-1.198421582E-3,2.363319266E-3
1.185177258E0,9.321057005E-4,6.657897611E-4,-1.198421582E-3,1.657803164E-3
1.187685800E0,9.321057005E-4,1.731053460E-3,-1.198421582E-3,2.302516321E-3
1.190194341E0,1.997369342E-3,1.731053460E-3,-1.198421582E-3,2.902110380E-3
1.192702883E0,9.321057005E-4,2.796316985E-3,-1.331579551E-4,2.950583122E-3
1.195211425E0,1.997369342E-3,1.731053460E-3,-1.198421582E-3,2.902110380E-3
1.197719966E0,-1.331579551E-4,1.731053460E-3,-1.331579551E-4,1.741266253E-3
1.200228508E0,-1.331579551E-4,2.796316985E-3,-1.198421582E-3,3.045214936E-3
1.202737050E0,-1.198421582E-3,2.796316985E-3,-1.331579551E-4,3.045214936E-3
1.205245591E0,-1.331579551E-4,1.731053460E-3,9.321057005E-4,1.970557830E-3
1.207754133E0,-1.331579551E-4,6.657897611E-4,-1.331579551E-4,6.919090172E-4
1.210262675E0,9.321057005E-4,6.657897611E-4,-1.331579551E-4,1.153181722E-3
1.212771216E0,-1.331579551E-4,1.731053460E-3,-1.331579551E-4,1.741266253E-3
1.215279758E0,-1.331579551E-4,2.796316985E-3,-1.331579551E-4,2.802650667E-3
1.217788300E0,-1.331579551E-4,2.796316985E-3,-1.331579551E-4,2.802650667E-3
1.220296841E0,-1.331579551E-4,2.796316985E-3,-1.198421582E-3,3.045214936E-3
1.222805383E0,-1.331579551E-4,6.657897611E-4,-1.331579551E-4,6.919090172E-4
1.225313925E0,-1.331579551E-4,1.731053460E-3,-1.331579551E-4,1.741266253E-3
1.227822466E0,-1.331579551E-4,6.657897611E-4,-1.331579551E-4,6.919090172E-4
1.230331008E0,9.321057005E-4,6.657897611E-4,-1.331579551E-4,1.153181722E-3
1.232839550E0,9.321057005E-4,6.657897611E-4,-1.331579551E-4,1.153181722E-3
1.235348091E0,9.321057005E-4,6.657897611E-4,9.321057005E-4,1.476793174E-3
1.237856633E0,9.321057005E-4,1.731053460E-3,-1.198421582E-3,2.302516321E-3
1.240365175E0,-1.331579551E-4,1.731053460E-3,-1.198421582E-3,2.109618783E-3
1.242873716E0,-1.331579551E-4,6.657897611E-4,-1.331579551E-4,6.919090172E-4
1.245382258E0,-1.331579551E-4,6.657897611E-4,9.321057005E-4,1.153181722E-3
1.247890800E0,9.321057005E-4,6.657897611E-4,-1.331579551E-4,1.153181722E-3
1.250399341E0,9.321057005E-4,-3.994738800E-4,-1.331579551E-4,1.022805680E-3
1.252907883E0,9.321057005E-4,6.657897611E-4,-1.198421582E-3,1.657803164E-3
1.255416425E0,-1.331579551E-4,6.657897611E-4,-2.263685223E-3,2.363319241E-3
1.257924966E0,9.321057005E-4,6.657897611E-4,9.321057005E-4,1.476793174E-3
1.260433508E0,9.321057005E-4,1.731053460E-3,-1.331579551E-4,1.970557830E-3
1.262942050E0,-1.331579551E-4,1.731053460E-3,-1.198421582E-3,2.109618783E-3
1.265450591E0,9.321057005E-4,6.657897611E-4,-1.331579551E-4,1.153181722E-3
1.267959133E0,9.321057005E-4,6.657897611E-4,9.321057005E-4,1.476793174E-3
1.270467675E0,-1.331579551E-4,6.657897611E-4,-1.331579551E-4,6.919090172E-4
1.272976216E0,9.321057005E-4,1.731053460E-3,9.321057005E-4,2.175818962E-3
1.275484758E0,-1.331579551E-4,1.731053460E-3,1.997369342E-3,2.646462055E-3
1.277993300E0,-1.331579551E-4,2.796316985E-3,-1.331579551E-4,2.802650667E-3
1.280501841E0,-1.331579551E-4,3.861580743E-3,-1.198421582E-3,4.045460562E-3
1.283010383E0,-1.198421582E-3,3.861580743E-3,-2.263685223E-3,4.633820336E-3
1.285518925E0,-1.198421582E-3,2.796316985E-3,-1.198421582E-3,3.269834439E-3
1.288027466E0,-1.331579551E-4,2.796316985E-3,-1.198421582E-3,3.045214936E-3
1.290536008E0,-1.331579551E-4,2.796316985E-3,-1.331579551E-4,2.802650667E-3
1.293044550E0,-1.331579551E-4,1.731053460E-3,-1.198421582E-3,2.109618783E-3
1.295553091E0,-1.331579551E-4,6.657897611E-4,-1.198421582E-3,1.377396578E-3
1.298061633E0,-1.198421582E-3,2.796316985E-3,-1.198421582E-3,3.269834439E-3
1.300570175E0,-1.331579551E-4,1.731053460E-3,-1.331579551E-4,1.741266253E-3
1.303078716E0,-1.331579551E-4,1.731053460E-3,9.321057005E-4,1.970557830E-3
1.305587258E0,-1.331579551E-4,1.731053460E-3,9.321057005E-4,1.970557830E-3
1.308095800E0,-1.331579551E-4,2.796316985E-3,1.997369342E-3,3.438982990E-3
1.310604341E0,-1.331579551E-4,1.731053460E-3,-1.331579551E-4,1.741266253E-3
1.313112883E0,-1.331579551E-4,1.731053460E-3,-1.331579551E-4,1.741266253E-3
1.315621425E0,9.321057005E-4,6.657897611E-4,-1.198421582E-3,1.657803164E-3
1.318129966E0,9.321057005E-4,6.657897611E-4,-1.198421582E-3,1.657803164E-3
1.320638508E0,-1.331579551E-4,1.731053460E-3,-2.263685223E-3,2.852814034E-3
1.323147050E0,9.321057005E-4,6.657897611E-4,-1.331579551E-4,1.153181722E-3
1.325655591E0,1.997369342E-3,6.657897611E-4,-1.198421582E-3,2.422596661E-3
1.328164133E0,9.321057005E-4,-3.994738800E-4,-1.198421582E-3,1.569909139E-3
1.330672675E0,9.321057005E-4,-3.994738800E-4,-1.331579551E-4,1.022805680E-3
1.333181216E0,9.321057005E-4,6.657897611E-4,9.321057005E-4,1.476793174E-3
1.335689758E0,-1.331579551E-4,1.731053460E-3,-1.331579551E-4,1.741266253E-3
1.338198300E0,9.321057005E-4,2.796316985E-3,-1.331579551E-4,2.950583122E-3
1.340706841E0,-1.331579551E-4,2.796316985E-3,-1.331579551E-4,2.802650667E-3
1.343215383E0,-1.331579551E-4,2.796316985E-3,-1.198421582E-3,3.045214936E-3
1.345723925E0,-1.331579551E-4,1.731053460E-3,-1.331579551E-4,1.741266253E-3
1.348232466E0,-1.331579551E-4,6.657897611E-4,-1.331579551E-4,6.919090172E-4
1.350741008E0,-1.198421582E-3,6.657897611E-4,-1.331579551E-4,1.377396578E-3
1.353249550E0,-1.331579551E-4,2.796316985E-3,-1.198421582E-3,3.045214936E-3
1.355758091E0,9.321057005E-4,1.731053460E-3,-1.331579551E-4,1.970557830E-3
1.358266633E0,-1.331579551E-4,1.731053460E-3,-1.331579551E-4,1.741266253E-3
1.360775175E0,-1.331579551E-4,6.657897611E-4,-2.263685223E-3,2.363319241E-3
1.363283716E0,-1.331579551E-4,-3.994738800E-4,-2.263685223E-3,2.302516278E-3
1.365792258E0,-1.331579551E-4,6.657897611E-4,-2.263685223E-3,2.363319241E-3
1.368300800E0,-1.331579551E-4,1.731053460E-3,-2.263685223E-3,2.852814034E-3
1.370809341E0,-1.198421582E-3,2.796316985E-3,-1.198421582E-3,3.269834439E-3
1.373317883E0,-1.198421582E-3,2.796316985E-3,-1.331579551E-4,3.045214936E-3
1.375826425E0,-1.331579551E-4,1.731053460E-3,-1.331579551E-4,1.741266253E-3
1.378334966E0,-1.331579551E-4,1.731053460E-3,9.321057005E-4,1.970557830E-3
1.380843508E0,-1.331579551E-4,6.657897611E-4,9.321057005E-4,1.153181722E-3
1.383352050E0,9.321057005E-4,6.657897611E-4,-1.331579551E-4,1.153181722E-3
1.385860591E0,9.321057005E-4,6.657897611E-4,-1.331579551E-4,1.153181722E-3
1.388369133E0,9.321057005E-4,6.657897611E-4,1.997369342E-3,2.302516304E-3
1.390877675E0,-1.331579551E-4,6.657897611E-4,9.321057005E-4,1.153181722E-3
1.393386216E0,-1.331579551E-4,1.731053460E-3,-1.331579551E-4,1.741266253E-3
1.395894758E0,9.321057005E-4,1.731053460E-3,-1.198421582E-3,2.302516321E-3
1.398403300E0,9.321057005E-4,2.796316985E-3,-1.198421582E-3,3.181890005E-3
1.400911841E0,9.321057005E-4,1.731053460E-3,-1.198421582E-3,2.302516321E-3
1.403420383E0,-1.331579551E-4,1.731053460E-3,-1.331579551E-4,1.741266253E-3
1.405928925E0,9.321057005E-4,1.731053460E-3,-1.331579551E-4,1.970557830E-3
1.408437466E0,-1.331579551E-4,1.731053460E-3,-1.198421582E-3,2.109618783E-3
1.410946008E0,-1.331579551E-4,1.731053460E-3,-1.198421582E-3,2.109618783E-3
1.413454550E0,9.321057005E-4,1.731053460E-3,-2.263685223E-3,2.998272487E-3
1.415963091E0,-1.331579551E-4,1.731053460E-3,-1.198421582E-3,2.109618783E-3
1.418471633E0,-1.198421582E-3,1.731053460E-3,-1.331579551E-4,2.109618783E-3
1.420980175E0,-1.331579551E-4,6.657897611E-4,-1.331579551E-4,6.919090172E-4
1.423488716E0,1.997369342E-3,6.657897611E-4,-1.198421582E-3,2.422596661E-3
1.425997258E0,9.321057005E-4,2.796316985E-3,9.321057005E-4,3.091444768E-3
1.428505800E0,-1.331579551E-4,2.796316985E-3,9.321057005E-4,2.950583122E-3
1.431014341E0,-1.331579551E-4,1.731053460E-3,9.321057005E-4,1.970557830E-3
1.433522883E0,-1.198421582E-3,1.731053460E-3,-1.331579551E-4,2.109618783E-3
1.436031425E0,-1.331579551E-4,6.657897611E-4,-1.331579551E-4,6.919090172E-4
1.438539966E0,-1.331579551E-4,1.731053460E-3,-1.331579551E-4,1.741266253E-3
1.441048508E0,9.321057005E-4,2.796316985E-3,-2.263685223E-3,3.716514564E-3
1.443557050E0,9.321057005E-4,1.731053460E-3,-1.331579551E-4,1.970557830E-3
1.446065591E0,9.321057005E-4,1.731053460E-3,-1.331579551E-4,1.970557830E-3
1.448574133E0,9.321057005E-4,1.731053460E-3,9.321057005E-4,2.175818962E-3
1.451082675E0,9.321057005E-4,6.657897611E-4,-1.198421582E-3,1.657803164E-3
1.453591216E0,-1.331579551E-4,6.657897611E-4,-1.331579551E-4,6.919090172E-4
1.456099758E0,-1.331579551E-4,1.731053460E-3,-1.331579551E-4,1.741266253E-3
1.458608300E0,-1.331579551E-4,1.731053460E-3,-1.331579551E-4,1.741266253E-3
1.461116841E0,9.321057005E-4,2.796316985E-3,9.321057005E-4,3.091444768E-3
1.463625383E0,9.321057005E-4,1.731053460E-3,-1.331579551E-4,1.970557830E-3
1.466133925E0,9.321057005E-4,1.731053460E-3,-1.198421582E-3,2.302516321E-3
1.468642466E0,1.997369342E-3,6.657897611E-4,-1.198421582E-3,2.422596661E-3
1.471151008E0,9.321057005E-4,1.731053460E-3,9.321057005E-4,2.175818962E-3
1.473659550E0,-1.331579551E-4,6.657897611E-4,-1.331579551E-4,6.919090172E-4
1.476168091E0,-1.331579551E-4,6.657897611E-4,-1.198421582E-3,1.377396578E-3
1.478676633E0,-1.331579551E-4,1.731053460E-3,9.321057005E-4,1.970557830E-3
1.481185175E0,-1.331579551E-4,1.731053460E-3,9.321057005E-4,1.970557830E-3
1.483693716E0,9.321057005E-4,1.731053460E-3,-1.331579551E-4,1.970557830E-3
1.486202258E0,9.321057005E-4,6.657897611E-4,-1.198421582E-3,1.657803164E-3
1.488710800E0,9.321057005E-4,6.657897611E-4,-1.198421582E-3,1.657803164E-3
1.491219341E0,9.321057005E-4,1.731053460E-3,-1.331579551E-4,1.970557830E-3
1.493727883E0,-1.331579551E-4,2.796316985E-3,9.321057005E-4,2.950583122E-3
1.496236425E0,-1.331579551E-4,1.731053460E-3,9.321057005E-4,1.970557830E-3
1.498744966E0,-1.198421582E-3,6.657897611E-4,9.321057005E-4,1.657803164E-3
1.501253508E0,-2.263685223E-3,1.731053460E-3,9.321057005E-4,2.998272487E-3
1.503762050E0,-1.198421582E-3,1.731053460E-3,9.321057005E-4,2.302516321E-3
1.506270591E0,-1.331579551E-4,1.731053460E-3,9.321057005E-4,1.970557830E-3
1.508779133E0,-1.331579551E-4,2.796316985E-3,-1.331579551E-4,2.802650667E-3
1.511287675E0,9.321057005E-4,6.657897611E-4,9.321057005E-4,1.476793174E-3
1.513796216E0,9.321057005E-4,6.657897611E-4,9.321057005E-4,1.476793174E-3
1.516304758E0,9.321057005E-4,2.796316985E-3,-1.331579551E-4,2.950583122E-3
1.518813300E0,-1.331579551E-4,2.796316985E-3,-1.198421582E-3,3.045214936E-3
1.521321841E0,-1.331579551E-4,1.731053460E-3,-1.198421582E-3,2.109618783E-3
1.523830383E0,9.321057005E-4,1.731053460E-3,-1.331579551E-4,1.970557830E-3
1.526338925E0,9.321057005E-4,2.796316985E-3,9.321057005E-4,3.091444768E-3
1.528847466E0,9.321057005E-4,1.731053460E-3,-1.331579551E-4,1.970557830E-3
1.531356008E0,-1.331579551E-4,1.731053460E-3,-1.198421582E-3,2.109618783E-3
1.533864550E0,-1.331579551E-4,2.796316985E-3,-1.331579551E-4,2.802650667E-3
1.536373091E0,-1.331579551E-4,6.657897611E-4,-1.331579551E-4,6.919090172E-4
1.538881633E0,-1.198421582E-3,6.657897611E-4,9.321057005E-4,1.657803164E-3
1.541390175E0,-1.331579551E-4,6.657897611E-4,-1.331579551E-4,6.919090172E-4
1.543898716E0,-1.331579551E-4,1.731053460E-3,9.321057005E-4,1.970557830E-3
1.546407258E0,-1.198421582E-3,6.657897611E-4,-1.331579551E-4,1.377396578E-3
1.548915800E0,-1.198421582E-3,-3.994738800E-4,-1.198421582E-3,1.741266193E-3
1.551424341E0,-1.331579551E-4,-3.994738800E-4,-1.331579551E-4,4.416349882E-4
1.553932883E0,-1.331579551E-4,6.657897611E-4,9.321057005E-4,1.153181722E-3
1.556441425E0,-1.331579551E-4,6.657897611E-4,9.321057005E-4,1.153181722E-3
1.558949966E0,-1.331579551E-4,2.796316985E-3,1.997369342E-3,3.438982990E-3
1.561458508E0,-1.331579551E-4,2.796316985E-3,-1.331579551E-4,2.802650667E-3
1.563967050E0,-1.198421582E-3,2.796316985E-3,9.321057005E-4,3.181890005E-3
1.566475591E0,-1.331579551E-4,2.796316985E-3,9.321057005E-4,2.950583122E-3
1.568984133E0,9.321057005E-4,1.731053460E-3,9.321057005E-4,2.175818962E-3
1.571492675E0,1.997369342E-3,2.796316985E-3,-1.331579551E-4,3.438982990E-3
1.574001216E0,9.321057005E-4,2.796316985E-3,-2.263685223E-3,3.716514564E-3
1.576509758E0,-1.331579551E-4,2.796316985E-3,-2.263685223E-3,3.600193121E-3
1.579018300E0,-1.331579551E-4,6.657897611E-4,-1.198421582E-3,1.377396578E-3
1.581526841E0,-1.198421582E-3,6.657897611E-4,-1.198421582E-3,1.820907626E-3
1.584035383E0,-1.198421582E-3,1.731053460E-3,-2.263685223E-3,3.091444833E-3
1.586543925E0,-1.198421582E-3,2.796316985E-3,-1.331579551E-4,3.045214936E-3
1.589052466E0,-1.331579551E-4,6.657897611E-4,9.321057005E-4,1.153181722E-3
1.591561008E0,-1.331579551E-4,-3.994738800E-4,-1.331579551E-4,4.416349882E-4
1.594069550E0,-1.198421582E-3,-3.994738800E-4,-1.331579551E-4,1.270245925E-3
1.596578091E0,-1.331579551E-4,6.657897611E-4,-1.331579551E-4,6.919090172E-4
1.599086633E0,-1.331579551E-4,1.731053460E-3,-1.331579551E-4,1.741266253E-3
1.601595175E0,9.321057005E-4,2.796316985E-3,9.321057005E-4,3.091444768E-3
1.604103716E0,-1.198421582E-3,2.796316985E-3,-1.331579551E-4,3.045214936E-3
1.606612258E0,-1.331579551E-4,1.731053460E-3,-1.198421582E-3,2.109618783E-3
1.609120800E0,9.321057005E-4,2.796316985E-3,9.321057005E-4,3.091444768E-3
1.611629341E0,9.321057005E-4,2.796316985E-3,-1.331579551E-4,2.950583122E-3
1.614137883E0,9.321057005E-4,3.861580743E-3,9.321057005E-4,4.080373501E-3
1.616646425E0,9.321057005E-4,3.861580743E-3,1.997369342E-3,4.446359315E-3
1.619154966E0,9.321057005E-4,1.731053460E-3,9.321057005E-4,2.175818962E-3
1.621663508E0,-1.331579551E-4,3.861580743E-3,-1.198421582E-3,4.045460562E-3
1.624172050E0,9.321057005E-4,3.861580743E-3,-1.198421582E-3,4.149318155E-3
1.626680591E0,-1.331579551E-4,2.796316985E-3,-1.331579551E-4,2.802650667E-3
1.629189133E0,-1.198421582E-3,1.731053460E-3,-1.198421582E-3,2.422596677E-3
1.631697727E0,-1.198421582E-3,1.731053460E-3,-1.331579551E-4,2.109618783E-3
1.634206321E0,-1.198421582E-3,6.657897611E-4,-1.331579551E-4,1.377396578E-3
1.636714914E0,-1.331579551E-4,6.657897611E-4,-1.331579551E-4,6.919090172E-4
1.639223508E0,-1.331579551E-4,-3.994738800E-4,9.321057005E-4,1.022805680E-3
1.641732102E0,-1.331579551E-4,6.657897611E-4,9.321057005E-4,1.153181722E-3
1.644240696E0,-1.331579551E-4,2.796316985E-3,-1.331579551E-4,2.802650667E-3
1.646749289E0,9.321057005E-4,1.731053460E-3,-1.198421582E-3,2.302516321E-3
1.649257883E0,9.321057005E-4,2.796316985E-3,-1.198421582E-3,3.181890005E-3
1.651766477E0,9.321057005E-4,3.861580743E-3,9.321057005E-4,4.080373501E-3
1.654275071E0,9.321057005E-4,2.796316985E-3,-1.331579551E-4,2.950583122E-3
1.656783664E0,-1.331579551E-4,2.796316985E-3,-1.331579551E-4,2.802650667E-3
1.659292258E0,9.321057005E-4,2.796316985E-3,-1.198421582E-3,3.181890005E-3
1.661800852E0,9.321057005E-4,1.731053460E-3,-1.331579551E-4,1.970557830E-3
1.664309446E0,-1.331579551E-4,1.731053460E-3,9.321057005E-4,1.970557830E-3
1.666818039E0,-1.331579551E-4,2.796316985E-3,9.321057005E-4,2.950583122E-3
1.669326633E0,-1.331579551E-4,2.796316985E-3,-1.331579551E-4,2.802650667E-3
1.671835227E0,-1.331579551E-4,2.796316985E-3,-1.198421582E-3,3.045214936E-3
1.674343821E0,-1.331579551E-4,3.861580743E-3,-1.198421582E-3,4.045460562E-3
1.676852414E0,9.321057005E-4,2.796316985E-3,-1.331579551E-4,2.950583122E-3
1.679361008E0,1.997369342E-3,3.861580743E-3,-1.331579551E-4,4.349600115E-3
1.681869602E0,1.997369342E-3,3.861580743E-3,-1.198421582E-3,4.509712231E-3
1.684378196E0,1.997369342E-3,1.731053460E-3,-1.331579551E-4,2.646462055E-3
1.686886789E0,9.321057005E-4,6.657897611E-4,-1.331579551E-4,1.153181722E-3
1.689395383E0,9.321057005E-4,6.657897611E-4,-1.331579551E-4,1.153181722E-3
1.691903977E0,-1.331579551E-4,6.657897611E-4,9.321057005E-4,1.153181722E-3
1.694412571E0,-1.331579551E-4,1.731053460E-3,-1.331579551E-4,1.741266253E-3
1.696921164E0,9.321057005E-4,1.731053460E-3,-1.198421582E-3,2.302516321E-3
1.699429758E0,-1.331579551E-4,1.731053460E-3,-1.331579551E-4,1.741266253E-3
1.701938300E0,-1.331579551E-4,6.657897611E-4,1.997369342E-3,2.109618765E-3
1.704446841E0,9.321057005E-4,1.731053460E-3,9.321057005E-4,2.175818962E-3
1.706955383E0,-1.331579551E-4,2.796316985E-3,-1.331579551E-4,2.802650667E-3
1.709463925E0,-1.331579551E-4,2.796316985E-3,-1.331579551E-4,2.802650667E-3
1.711972466E0,-1.331579551E-4,2.796316985E-3,-1.331579551E-4,2.802650667E-3
1.714481008E0,-1.331579551E-4,2.796316985E-3,-1.331579551E-4,2.802650667E-3
1.716989550E0,-1.331579551E-4,1.731053460E-3,-1.331579551E-4,1.741266253E-3
1.719498091E0,-1.331579551E-4,1.731053460E-3,-1.331579551E-4,1.741266253E-3
1.722006633E0,9.321057005E-4,1.731053460E-3,-1.331579551E-4,1.970557830E-3
1.724515175E0,-1.331579551E-4,1.731053460E-3,-1.331579551E-4,1.741266253E-3
1.727023716E0,-1.331579551E-4,2.796316985E-3,-1.198421582E-3,3.045214936E-3
1.729532258E0,-1.331579551E-4,2.796316985E-3,-1.198421582E-3,3.045214936E-3
1.732040800E0,-1.331579551E-4,1.731053460E-3,-2.263685223E-3,2.852814034E-3
1.734549341E0,-1.331579551E-4,1.731053460E-3,-2.263685223E-3,2.852814034E-3
1.737057883E0,-1.331579551E-4,2.796316985E-3,-1.198421582E-3,3.045214936E-3
1.739566425E0,-1.198421582E-3,1.731053460E-3,-2.263685223E-3,3.091444833E-3
1.742074966E0,-1.198421582E-3,6.657897611E-4,-1.198421582E-3,1.820907626E-3
1.744583508E0,-1.331579551E-4,1.731053460E-3,-1.331579551E-4,1.741266253E-3
1.747092050E0,-1.198421582E-3,1.731053460E-3,-1.331579551E-4,2.109618783E-3
1.749600591E0,-1.331579551E-4,6.657897611E-4,-1.198421582E-3,1.377396578E-3
1.752109133E0,-1.331579551E-4,6.657897611E-4,-1.331579551E-4,6.919090172E-4
1.754617675E0,-1.331579551E-4,2.796316985E-3,9.321057005E-4,2.950583122E-3
1.757126216E0,-1.331579551E-4,2.796316985E-3,9.321057005E-4,2.950583122E-3
1.759634758E0,9.321057005E-4,2.796316985E-3,9.321057005E-4,3.091444768E-3
1.762143300E0,-1.331579551E-4,1.731053460E-3,-1.331579551E-4,1.741266253E-3
1.764651841E0,-1.331579551E-4,6.657897611E-4,9.321057005E-4,1.153181722E-3
1.767160383E0,-1.331579551E-4,-3.994738800E-4,-1.331579551E-4,4.416349882E-4
1.769668925E0,-1.331579551E-4,6.657897611E-4,-2.263685223E-3,2.363319241E-3
1.772177466E0,-1.331579551E-4,1.731053460E-3,-1.198421582E-3,2.109618783E-3
1.774686008E0,-1.331579551E-4,6.657897611E-4,-1.198421582E-3,1.377396578E-3
1.777194550E0,-1.331579551E-4,6.657897611E-4,-1.198421582E-3,1.377396578E-3
1.779703091E0,-1.331579551E-4,6.657897611E-4,-1.198421582E-3,1.377396578E-3
1.782211633E0,-1.331579551E-4,6.657897611E-4,-1.198421582E-3,1.377396578E-3
1.784720175E0,-1.198421582E-3,1.731053460E-3,-1.331579551E-4,2.109618783E-3
1.787228716E0,-1.331579551E-4,1.731053460E-3,-1.198421582E-3,2.109618783E-3
1.789737258E0,-1.331579551E-4,1.731053460E-3,-1.198421582E-3,2.109618783E-3
1.792245800E0,9.321057005E-4,2.796316985E-3,-1.331579551E-4,2.950583122E-3
1.794754341E0,9.321057005E-4,2.796316985E-3,9.321057005E-4,3.091444768E-3
1.797262883E0,9.321057005E-4,1.731053460E-3,1.997369342E-3,2.802650782E-3
1.799771425E0,-1.331579551E-4,2.796316985E-3,9.321057005E-4,2.950583122E-3
1.802279966E0,-1.331579551E-4,2.796316985E-3,9.321057005E-4,2.950583122E-3
1.804788508E0,-1.331579551E-4,1.731053460E-3,9.321057005E-4,1.970557830E-3
1.807297050E0,-1.331579551E-4,6.657897611E-4,9.321057005E-4,1.153181722E-3
1.809805591E0,-1.331579551E-4,2.796316985E-3,-1.331579551E-4,2.802650667E-3
1.812314133E0,-1.331579551E-4,2.796316985E-3,-1.198421582E-3,3.045214936E-3
1.814822675E0,-1.331579551E-4,2.796316985E-3,-1.198421582E-3,3.045214936E-3
1.817331216E0,9.321057005E-4,2.796316985E-3,-1.198421582E-3,3.181890005E-3
1.819839758E0,9.321057005E-4,6.657897611E-4,-1.198421582E-3,1.657803164E-3
1.822348300E0,-1.331579551E-4,1.731053460E-3,-1.198421582E-3,2.109618783E-3
1.824856841E0,-1.331579551E-4,1.731053460E-3,-2.263685223E-3,2.852814034E-3
1.827365383E0,-1.331579551E-4,1.731053460E-3,-2.263685223E-3,2.852814034E-3
1.829873925E0,-1.331579551E-4,6.657897611E-4,-1.198421582E-3,1.377396578E-3
1.832382466E0,9.321057005E-4,6.657897611E-4,-2.263685223E-3,2.536999769E-3
1.834891008E0,1.997369342E-3,6.657897611E-4,-1.198421582E-3,2.422596661E-3
1.837399550E0,1.997369342E-3,1.731053460E-3,9.321057005E-4,2.802650782E-3
1.839908091E0,9.321057005E-4,2.796316985E-3,9.321057005E-4,3.091444768E-3
1.842416633E0,9.321057005E-4,1.731053460E-3,-1.198421582E-3,2.302516321E-3
1.844925175E0,-1.331579551E-4,2.796316985E-3,-1.331579551E-4,2.802650667E-3
1.847433716E0,-1.331579551E-4,1.731053460E-3,-1.331579551E-4,1.741266253E-3
1.849942258E0,-1.331579551E-4,2.796316985E-3,-1.331579551E-4,2.802650667E-3
1.852450800E0,-1.331579551E-4,3.861580743E-3,9.321057005E-4,3.974714821E-3
1.854959341E0,1.997369342E-3,1.731053460E-3,1.997369342E-3,3.312931429E-3
1.857467883E0,9.321057005E-4,1.731053460E-3,9.321057005E-4,2.175818962E-3
1.859976425E0,-1.331579551E-4,6.657897611E-4,9.321057005E-4,1.153181722E-3
1.862484966E0,-1.331579551E-4,6.657897611E-4,-1.331579551E-4,6.919090172E-4
1.864993508E0,-1.331579551E-4,1.731053460E-3,9.321057005E-4,1.970557830E-3
1.867502050E0,9.321057005E-4,1.731053460E-3,9.321057005E-4,2.175818962E-3
1.870010591E0,9.321057005E-4,2.796316985E-3,9.321057005E-4,3.091444768E-3
1.872519133E0,9.321057005E-4,2.796316985E-3,9.321057005E-4,3.091444768E-3
1.875027675E0,9.321057005E-4,2.796316985E-3,-1.331579551E-4,2.950583122E-3
1.877536216E0,9.321057005E-4,2.796316985E-3,-1.198421582E-3,3.181890005E-3
1.880044758E0,-1.331579551E-4,2.796316985E-3,-1.198421582E-3,3.045214936E-3
1.882553300E0,-1.331579551E-4,1.731053460E-3,-1.331579551E-4,1.741266253E-3
1.885061841E0,-1.331579551E-4,1.731053460E-3,-1.331579551E-4,1.741266253E-3
1.887570383E0,-1.331579551E-4,2.796316985E-3,-1.331579551E-4,2.802650667E-3
1.890078925E0,9.321057005E-4,2.796316985E-3,-1.331579551E-4,2.950583122E-3
1.892587466E0,-1.331579551E-4,3.861580743E-3,-1.198421582E-3,4.045460562E-3
1.895096008E0,-1.331579551E-4,2.796316985E-3,-1.331579551E-4,2.802650667E-3
1.897604550E0,9.321057005E-4,1.731053460E-3,-1.331579551E-4,1.970557830E-3
1.900113091E0,9.321057005E-4,1.731053460E-3,1.997369342E-3,2.802650782E-3
1.902621633E0,9.321057005E-4,2.796316985E-3,9.321057005E-4,3.091444768E-3
1.905130175E0,9.321057005E-4,2.796316985E-3,9.321057005E-4,3.091444768E-3
1.907638716E0,9.321057005E-4,3.861580743E-3,-1.331579551E-4,3.974714821E-3
1.910147258E0,-1.331579551E-4,2.796316985E-3,-1.198421582E-3,3.045214936E-3
1.912655800E0,-1.331579551E-4,1.731053460E-3,9.321057005E-4,1.970557830E-3
1.915164341E0,-1.331579551E-4,1.731053460E-3,-1.331579551E-4,1.741266253E-3
1.917672883E0,-1.331579551E-4,1.731053460E-3,-2.263685223E-3,2.852814034E-3
1.920181425E0,-1.331579551E-4,2.796316985E-3,-1.198421582E-3,3.045214936E-3
1.922689966E0,9.321057005E-4,2.796316985E-3,-1.331579551E-4,2.950583122E-3
1.925198508E0,9.321057005E-4,2.796316985E-3,-1.198421582E-3,3.181890005E-3
1.927707050E0,-1.331579551E-4,1.731053460E-3,-1.198421582E-3,2.109618783E-3
1.930215591E0,-1.331579551E-4,2.796316985E-3,-1.198421582E-3,3.045214936E-3
1.932724133E0,-1.331579551E-4,2.796316985E-3,-1.198421582E-3,3.045214936E-3
1.935232675E0,-1.198421582E-3,2.796316985E-3,-1.198421582E-3,3.269834439E-3
1.937741216E0,-1.331579551E-4,1.731053460E-3,-1.331579551E-4,1.741266253E-3
1.940249758E0,-1.331579551E-4,1.731053460E-3,-1.198421582E-3,2.109618783E-3
1.942758300E0,-1.331579551E-4,6.657897611E-4,-1.331579551E-4,6.919090172E-4
1.945266841E0,9.321057005E-4,2.796316985E-3,-1.331579551E-4,2.950583122E-3
1.947775383E0,-1.331579551E-4,1.731053460E-3,-1.198421582E-3,2.109618783E-3
1.950283925E0,-1.198421582E-3,1.731053460E-3,-1.198421582E-3,2.422596677E-3
1.952792466E0,-1.198421582E-3,1.731053460E-3,9.321057005E-4,2.302516321E-3
1.955301008E0,-1.331579551E-4,1.731053460E-3,9.321057005E-4,1.970557830E-3
1.957809550E0,-1.331579551E-4,2.796316985E-3,-1.331579551E-4,2.802650667E-3
1.960318091E0,-1.331579551E-4,1.731053460E-3,-1.331579551E-4,1.741266253E-3
1.962826633E0,-1.331579551E-4,3.861580743E-3,-1.198421582E-3,4.045460562E-3
1.965335175E0,9.321057005E-4,2.796316985E-3,-1.331579551E-4,2.950583122E-3
1.967843716E0,9.321057005E-4,2.796316985E-3,-1.331579551E-4,2.950583122E-3
1.970352258E0,-1.331579551E-4,1.731053460E-3,-1.331579551E-4,1.741266253E-3
1.972860800E0,-1.331579551E-4,1.731053460E-3,-1.331579551E-4,1.741266253E-3
1.975369341E0,-1.331579551E-4,6.657897611E-4,-1.331579551E-4,6.919090172E-4
1.977877883E0,-1.331579551E-4,1.731053460E-3,9.321057005E-4,1.970557830E-3
1.980386425E0,-1.331579551E-4,2.796316985E-3,-1.198421582E-3,3.045214936E-3
1.982894966E0,-1.331579551E-4,6.657897611E-4,-2.263685223E-3,2.363319241E-3
1.985403508E0,-1.331579551E-4,6.657897611E-4,-1.198421582E-3,1.377396578E-3
1.987912050E0,-1.331579551E-4,6.657897611E-4,-1.198421582E-3,1.377396578E-3
1.990420591E0,-1.198421582E-3,6.657897611E-4,-2.263685223E-3,2.646461993E-3
1.992929133E0,-1.331579551E-4,1.731053460E-3,-1.198421582E-3,2.109618783E-3
1.995437675E0,9.321057005E-4,1.731053460E-3,-1.198421582E-3,2.302516321E-3
1.997946216E0,9.321057005E-4,1.731053460E-3,-2.263685223E-3,2.998272487E-3
2.000454758E0,-1.331579551E-4,6.657897611E-4,-2.263685223E-3,2.363319241E-3
2.002963300E0,-1.331579551E-4,6.657897611E-4,-1.198421582E-3,1.377396578E-3
2.005471841E0,-1.331579551E-4,1.731053460E-3,-2.263685223E-3,2.852814034E-3
2.007980383E0,-1.331579551E-4,2.796316985E-3,-1.198421582E-3,3.045214936E-3
2.010488925E0,9.321057005E-4,2.796316985E-3,-1.331579551E-4,2.950583122E-3
2.012997466E0,-1.331579551E-4,1.731053460E-3,-1.331579551E-4,1.741266253E-3
2.015506008E0,-1.198421582E-3,2.796316985E-3,-1.198421582E-3,3.269834439E-3
2.018014550E0,-1.198421582E-3,2.796316985E-3,-1.198421582E-3,3.269834439E-3
2.020523091E0,-1.331579551E-4,2.796316985E-3,-1.331579551E-4,2.802650667E-3
2.023031633E0,-1.331579551E-4,2.796316985E-3,-1.331579551E-4,2.802650667E-3
2.025540175E0,-1.331579551E-4,2.796316985E-3,-1.331579551E-4,2.802650667E-3
2.028048716E0,-1.331579551E-4,3.861580743E-3,-1.198421582E-3,4.045460562E-3
2.030557258E0,-1.331579551E-4,2.796316985E-3,-2.263685223E-3,3.600193121E-3
2.033065800E0,-1.331579551E-4,3.861580743E-3,-2.263685223E-3,4.478147793E-3
2.035574341E0,-1.331579551E-4,2.796316985E-3,-1.331579551E-4,2.802650667E-3
2.038082883E0,9.321057005E-4,2.796316985E-3,9.321057005E-4,3.091444768E-3
2.040591425E0,-1.331579551E-4,1.731053460E-3,9.321057005E-4,1.970557830E-3
2.043099966E0,-1.331579551E-4,2.796316985E-3,9.321057005E-4,2.950583122E-3
2.045608508E0,-1.331579551E-4,1.731053460E-3,9.321057005E-4,1.970557830E-3
2.048117050E0,9.321057005E-4,6.657897611E-4,9.321057005E-4,1.476793174E-3
2.050625591E0,9.321057005E-4,6.657897611E-4,9.321057005E-4,1.476793174E-3
2.053134133E0,-1.331579551E-4,1.731053460E-3,-1.198421582E-3,2.109618783E-3
2.055642675E0,9.321057005E-4,1.731053460E-3,-1.198421582E-3,2.302516321E-3
2.058151216E0,9.321057005E-4,6.657897611E-4,9.321057005E-4,1.476793174E-3
2.060659758E0,9.321057005E-4,6.657897611E-4,9.321057005E-4,1.476793174E-3
2.063168300E0,9.321057005E-4,-3.994738800E-4,9.321057005E-4,1.377396622E-3
2.065676841E0,-1.331579551E-4,-3.994738800E-4,1.997369342E-3,2.041272816E-3
2.068185383E0,-1.331579551E-4,6.657897611E-4,9.321057005E-4,1.153181722E-3
2.070693925E0,-1.331579551E-4,6.657897611E-4,-1.331579551E-4,6.919090172E-4
2.073202466E0,9.321057005E-4,1.731053460E-3,-1.331579551E-4,1.970557830E-3
2.075711008E0,-1.331579551E-4,6.657897611E-4,9.321057005E-4,1.153181722E-3
2.078219550E0,-1.331579551E-4,1.731053460E-3,1.997369342E-3,2.646462055E-3
2.080728091E0,-1.331579551E-4,2.796316985E-3,1.997369342E-3,3.438982990E-3
2.083236633E0,-1.331579551E-4,1.731053460E-3,9.321057005E-4,1.970557830E-3
2.085745175E0,-1.198421582E-3,6.657897611E-4,9.321057005E-4,1.657803164E-3
2.088253716E0,-1.331579551E-4,2.796316985E-3,9.321057005E-4,2.950583122E-3
2.090762258E0,-1.331579551E-4,6.657897611E-4,9.321057005E-4,1.153181722E-3
2.093270800E0,-1.331579551E-4,6.657897611E-4,9.321057005E-4,1.153181722E-3
2.095779341E0,9.321057005E-4,6.657897611E-4,-1.331579551E-4,1.153181722E-3
2.098287883E0,-1.331579551E-4,1.731053460E-3,-1.198421582E-3,2.109618783E-3
2.100796425E0,-1.331579551E-4,1.731053460E-3,-1.331579551E-4,1.741266253E-3
2.103304966E0,-1.331579551E-4,1.731053460E-3,-1.331579551E-4,1.741266253E-3
2.105813508E0,-1.331579551E-4,6.657897611E-4,-1.331579551E-4,6.919090172E-4
2.108322050E0,9.321057005E-4,6.657897611E-4,9.321057005E-4,1.476793174E-3
2.110830591E0,9.321057005E-4,1.731053460E-3,9.321057005E-4,2.175818962E-3
2.113339133E0,9.321057005E-4,1.731053460E-3,-1.331579551E-4,1.970557830E-3
2.115847675E0,9.321057005E-4,1.731053460E-3,-1.331579551E-4,1.970557830E-3
2.118356216E0,9.321057005E-4,6.657897611E-4,9.321057005E-4,1.476793174E-3
2.120864758E0,9.321057005E-4,1.731053460E-3,9.321057005E-4,2.175818962E-3
2.123373300E0,9.321057005E-4,1.731053460E-3,-1.331579551E-4,1.970557830E-3
2.125881841E0,-1.331579551E-4,1.731053460E-3,-1.198421582E-3,2.109618783E-3
2.128390383E0,-1.331579551E-4,1.731053460E-3,9.321057005E-4,1.970557830E-3
2.130898925E0,-1.331579551E-4,2.796316985E-3,9.321057005E-4,2.950583122E-3
2.133407466E0,-1.331579551E-4,1.731053460E-3,9.321057005E-4,1.970557830E-3
2.135916008E0,9.321057005E-4,1.731053460E-3,-1.331579551E-4,1.970557830E-3
2.138424550E0,9.321057005E-4,1.731053460E-3,-1.198421582E-3,2.302516321E-3
2.140933091E0,-1.331579551E-4,2.796316985E-3,-1.198421582E-3,3.045214936E-3
2.143441633E0,-1.331579551E-4,2.796316985E-3,-1.198421582E-3,3.045214936E-3
2.145950175E0,-1.331579551E-4,3.861580743E-3,-1.198421582E-3,4.045460562E-3
2.148458716E0,-1.331579551E-4,6.657897611E-4,-1.331579551E-4,6.919090172E-4
2.150967258E0,-1.198421582E-3,1.731053460E-3,9.321057005E-4,2.302516321E-3
2.153475800E0,-1.331579551E-4,6.657897611E-4,-1.331579551E-4,6.919090172E-4
2.155984341E0,9.321057005E-4,-3.994738800E-4,-1.198421582E-3,1.569909139E-3
2.158492883E0,1.997369342E-3,6.657897611E-4,-2.263685223E-3,3.091444821E-3
2.161001425E0,-1.331579551E-4,6.657897611E-4,-1.198421582E-3,1.377396578E-3
2.163509966E0,-1.331579551E-4,6.657897611E-4,-1.198421582E-3,1.377396578E-3
2.166018508E0,9.321057005E-4,2.796316985E-3,-1.198421582E-3,3.181890005E-3
2.168527102E0,9.321057005E-4,2.796316985E-3,9.321057005E-4,3.091444768E-3
2.171035696E0,-1.331579551E-4,1.731053460E-3,-1.198421582E-3,2.109618783E-3
2.173544289E0,-1.331579551E-4,1.731053460E-3,9.321057005E-4,1.970557830E-3
2.176052883E0,-1.331579551E-4,1.731053460E-3,9.321057005E-4,1.970557830E-3
2.178561477E0,-1.331579551E-4,1.731053460E-3,9.321057005E-4,1.970557830E-3
2.181070071E0,-1.331579551E-4,6.657897611E-4,-1.331579551E-4,6.919090172E-4
2.183578664E0,9.321057005E-4,6.657897611E-4,1.997369342E-3,2.302516304E-3
2.186087258E0,9.321057005E-4,1.731053460E-3,9.321057005E-4,2.175818962E-3
2.188595852E0,-1.331579551E-4,6.657897611E-4,-1.331579551E-4,6.919090172E-4
2.191104446E0,-1.331579551E-4,1.731053460E-3,-1.331579551E-4,1.741266253E-3
2.193613039E0,-1.331579551E-4,6.657897611E-4,-1.331579551E-4,6.919090172E-4
2.196121633E0,9.321057005E-4,1.731053460E-3,-1.331579551E-4,1.970557830E-3
2.198630227E0,-1.331579551E-4,1.731053460E-3,9.321057005E-4,1.970557830E-3
2.201138821E0,9.321057005E-4,6.657897611E-4,9.321057005E-4,1.476793174E-3
2.203647414E0,9.321057005E-4,6.657897611E-4,-1.331579551E-4,1.153181722E-3
2.206156008E0,9.321057005E-4,1.731053460E-3,-1.331579551E-4,1.970557830E-3
2.208664602E0,1.997369342E-3,1.731053460E-3,-1.331579551E-4,2.646462055E-3
2.211173196E0,9.321057005E-4,2.796316985E-3,-1.331579551E-4,2.950583122E-3
2.213681789E0,9.321057005E-4,2.796316985E-3,-1.198421582E-3,3.181890005E-3
2.216190383E0,1.997369342E-3,2.796316985E-3,-1.331579551E-4,3.438982990E-3
2.218698977E0,-1.331579551E-4,2.796316985E-3,-1.331579551E-4,2.802650667E-3
2.221207571E0,-1.331579551E-4,1.731053460E-3,9.321057005E-4,1.970557830E-3
2.223716164E0,-1.331579551E-4,1.731053460E-3,9.321057005E-4,1.970557830E-3
2.226224758E0,-1.331579551E-4,1.731053460E-3,-1.331579551E-4,1.741266253E-3
2.228733352E0,9.321057005E-4,2.796316985E-3,9.321057005E-4,3.091444768E-3
2.231241946E0,9.321057005E-4,2.796316985E-3,9.321057005E-4,3.091444768E-3
2.233750539E0,-1.331579551E-4,1.731053460E-3,-1.198421582E-3,2.109618783E-3
2.236259133E0,9.321057005E-4,6.657897611E-4,-1.331579551E-4,1.153181722E-3
2.238767675E0,9.321057005E-4,6.657897611E-4,-1.331579551E-4,1.153181722E-3
2.241276216E0,-1.331579551E-4,1.731053460E-3,-1.331579551E-4,1.741266253E-3
2.243784758E0,9.321057005E-4,1.731053460E-3,9.321057005E-4,2.175818962E-3
2.246293300E0,-1.331579551E-4,1.731053460E-3,9.321057005E-4,1.970557830E-3
2.248801841E0,9.321057005E-4,1.731053460E-3,-1.331579551E-4,1.970557830E-3
2.251310383E0,1.997369342E-3,1.731053460E-3,9.321057005E-4,2.802650782E-3
2.253818925E0,-1.331579551E-4,1.731053460E-3,9.321057005E-4,1.970557830E-3
2.256327466E0,-1.331579551E-4,1.731053460E-3,9.321057005E-4,1.970557830E-3
2.258836008E0,-1.331579551E-4,1.731053460E-3,-1.331579551E-4,1.741266253E-3
2.261344550E0,-1.331579551E-4,1.731053460E-3,9.321057005E-4,1.970557830E-3
2.263853091E0,9.321057005E-4,6.657897611E-4,9.321057005E-4,1.476793174E-3
2.266361633E0,9.321057005E-4,6.657897611E-4,9.321057005E-4,1.476793174E-3
2.268870175E0,-1.198421582E-3,1.731053460E-3,-1.331579551E-4,2.109618783E-3
2.271378716E0,-1.331579551E-4,2.796316985E-3,-1.198421582E-3,3.045214936E-3
2.273887258E0,-1.331579551E-4,2.796316985E-3,-1.198421582E-3,3.045214936E-3
2.276395800E0,9.321057005E-4,2.796316985E-3,-1.198421582E-3,3.181890005E-3
2.278904341E0,9.321057005E-4,2.796316985E-3,-1.331579551E-4,2.950583122E-3
2.281412883E0,1.997369342E-3,1.731053460E-3,9.321057005E-4,2.802650782E-3
2.283921425E0,9.321057005E-4,1.731053460E-3,9.321057005E-4,2.175818962E-3
2.286429966E0,-1.331579551E-4,2.796316985E-3,-1.198421582E-3,3.045214936E-3
2.288938508E0,-1.331579551E-4,2.796316985E-3,-1.331579551E-4,2.802650667E-3
2.291447050E0,9.321057005E-4,2.796316985E-3,-1.198421582E-3,3.181890005E-3
2.293955591E0,9.321057005E-4,1.731053460E-3,-1.331579551E-4,1.970557830E-3
2.296464133E0,1.997369342E-3,1.731053460E-3,9.321057005E-4,2.802650782E-3
2.298972675E0,-1.331579551E-4,6.657897611E-4,-1.331579551E-4,6.919090172E-4
2.301481216E0,-1.331579551E-4,6.657897611E-4,-1.198421582E-3,1.377396578E-3
2.303989758E0,-1.331579551E-4,1.731053460E-3,9.321057005E-4,1.970557830E-3
2.306498300E0,-1.331579551E-4,2.796316985E-3,9.321057005E-4,2.950583122E-3
2.309006841E0,9.321057005E-4,1.731053460E-3,9.321057005E-4,2.175818962E-3
2.311515383E0,-1.331579551E-4,1.731053460E-3,-1.331579551E-4,1.741266253E-3
2.314023925E0,-1.331579551E-4,2.796316985E-3,-1.331579551E-4,2.802650667E-3
2.316532466E0,9.321057005E-4,2.796316985E-3,-1.198421582E-3,3.181890005E-3
2.319041008E0,9.321057005E-4,1.731053460E-3,-1.198421582E-3,2.302516321E-3
2.321549550E0,-1.331579551E-4,6.657897611E-4,-1.198421582E-3,1.377396578E-3
2.324058091E0,-1.331579551E-4,6.657897611E-4,-1.331579551E-4,6.919090172E-4
2.326566633E0,-1.331579551E-4,6.657897611E-4,-1.198421582E-3,1.377396578E-3
2.329075175E0,-1.331579551E-4,6.657897611E-4,-1.331579551E-4,6.919090172E-4
2.331583716E0,9.321057005E-4,1.731053460E-3,-1.331579551E-4,1.970557830E-3
2.334092258E0,9.321057005E-4,1.731053460E-3,-1.331579551E-4,1.970557830E-3
2.336600800E0,9.321057005E-4,1.731053460E-3,-1.331579551E-4,1.970557830E-3
2.339109341E0,-1.331579551E-4,2.796316985E-3,9.321057005E-4,2.950583122E-3
2.341617883E0,-1.331579551E-4,2.796316985E-3,9.321057005E-4,2.950583122E-3
2.344126425E0,-1.331579551E-4,1.731053460E-3,9.321057005E-4,1.970557830E-3
2.346634966E0,9.321057005E-4,2.796316985E-3,-1.331579551E-4,2.950583122E-3
2.349143508E0,-1.331579551E-4,2.796316985E-3,-1.198421582E-3,3.045214936E-3
2.351652050E0,-1.198421582E-3,2.796316985E-3,-1.198421582E-3,3.269834439E-3
2.354160591E0,-1.198421582E-3,1.731053460E-3,-1.331579551E-4,2.109618783E-3
2.356669133E0,9.321057005E-4,1.731053460E-3,-1.331579551E-4,1.970557830E-3
2.359177675E0,-1.331579551E-4,6.657897611E-4,-1.331579551E-4,6.919090172E-4
2.361686216E0,9.321057005E-4,6.657897611E-4,9.321057005E-4,1.476793174E-3
2.364194758E0,9.321057005E-4,1.731053460E-3,9.321057005E-4,2.175818962E-3
2.366703300E0,-1.331579551E-4,6.657897611E-4,-1.331579551E-4,6.919090172E-4
2.369211841E0,-1.331579551E-4,6.657897611E-4,-1.198421582E-3,1.377396578E-3
2.371720383E0,9.321057005E-4,6.657897611E-4,-1.331579551E-4,1.153181722E-3
2.374228925E0,9.321057005E-4,6.657897611E-4,-1.331579551E-4,1.153181722E-3
2.376737466E0,9.321057005E-4,6.657897611E-4,-1.331579551E-4,1.153181722E-3
2.379246008E0,-1.331579551E-4,6.657897611E-4,-1.331579551E-4,6.919090172E-4
2.381754550E0,-1.331579551E-4,2.796316985E-3,-1.198421582E-3,3.045214936E-3
2.384263091E0,-1.198421582E-3,2.796316985E-3,-1.198421582E-3,3.269834439E-3
2.386771633E0,-1.198421582E-3,2.796316985E-3,-1.331579551E-4,3.045214936E-3
2.389280175E0,-1.331579551E-4,1.731053460E-3,9.321057005E-4,1.970557830E-3
2.391788716E0,-1.331579551E-4,2.796316985E-3,9.321057005E-4,2.950583122E-3
2.394297258E0,-1.331579551E-4,2.796316985E-3,-1.198421582E-3,3.045214936E-3
2.396805800E0,9.321057005E-4,2.796316985E-3,-1.198421582E-3,3.181890005E-3
2.399314341E0,1.997369342E-3,6.657897611E-4,-1.331579551E-4,2.109618765E-3
2.401822883E0,1.997369342E-3,6.657897611E-4,9.321057005E-4,2.302516304E-3
2.404331425E0,9.321057005E-4,1.731053460E-3,-1.331579551E-4,1.970557830E-3
2.406839966E0,9.321057005E-4,1.731053460E-3,-2.263685223E-3,2.998272487E-3
2.409348508E0,9.321057005E-4,1.731053460E-3,-1.198421582E-3,2.302516321E-3
2.411857050E0,9.321057005E-4,2.796316985E-3,-1.331579551E-4,2.950583122E-3
2.414365591E0,1.997369342E-3,2.796316985E-3,-1.331579551E-4,3.438982990E-3
2.416874133E0,9.321057005E-4,2.796316985E-3,-1.331579551E-4,2.950583122E-3
2.419382675E0,9.321057005E-4,1.731053460E-3,-1.198421582E-3,2.302516321E-3
2.421891216E0,-1.331579551E-4,6.657897611E-4,-1.331579551E-4,6.919090172E-4
2.424399758E0,-1.331579551E-4,6.657897611E-4,-1.331579551E-4,6.919090172E-4
2.426908300E0,-1.331579551E-4,6.657897611E-4,-1.198421582E-3,1.377396578E-3
2.429416841E0,-1.331579551E-4,6.657897611E-4,-1.198421582E-3,1.377396578E-3
2.431925383E0,-1.331579551E-4,1.731053460E-3,-1.331579551E-4,1.741266253E-3
2.434433925E0,-1.331579551E-4,2.796316985E-3,-1.198421582E-3,3.045214936E-3
2.436942466E0,-1.331579551E-4,6.657897611E-4,-1.331579551E-4,6.919090172E-4
2.439451008E0,-1.331579551E-4,-1.464737463E-3,-1.331579551E-4,1.476793119E-3
2.441959550E0,9.321057005E-4,1.731053460E-3,-1.198421582E-3,2.302516321E-3
2.444468091E0,9.321057005E-4,6.657897611E-4,-1.198421582E-3,1.657803164E-3
2.446976633E0,1.997369342E-3,1.731053460E-3,9.321057005E-4,2.802650782E-3
2.449485175E0,9.321057005E-4,2.796316985E-3,9.321057005E-4,3.091444768E-3
2.451993716E0,-1.331579551E-4,2.796316985E-3,-1.198421582E-3,3.045214936E-3
2.454502258E0,1.997369342E-3,6.657897611E-4,-1.331579551E-4,2.109618765E-3
2.457010800E0,9.321057005E-4,2.796316985E-3,-1.198421582E-3,3.181890005E-3
2.459519341E0,9.321057005E-4,1.731053460E-3,-1.198421582E-3,2.302516321E-3
2.462027883E0,9.321057005E-4,6.657897611E-4,-1.331579551E-4,1.153181722E-3
2.464536425E0,-1.331579551E-4,6.657897611E-4,9.321057005E-4,1.153181722E-3
2.467044966E0,9.321057005E-4,1.731053460E-3,9.321057005E-4,2.175818962E-3
2.469553508E0,-1.331579551E-4,1.731053460E-3,-1.198421582E-3,2.109618783E-3
2.472062050E0,-1.331579551E-4,2.796316985E-3,9.321057005E-4,2.950583122E-3
2.474570591E0,9.321057005E-4,2.796316985E-3,-1.331579551E-4,2.950583122E-3
2.477079133E0,1.997369342E-3,3.861580743E-3,-1.331579551E-4,4.349600115E-3
2.479587675E0,9.321057005E-4,1.731053460E-3,-1.198421582E-3,2.302516321E-3
2.482096216E0,9.321057005E-4,1.731053460E-3,-2.263685223E-3,2.998272487E-3
2.484604758E0,9.321057005E-4,1.731053460E-3,9.321057005E-4,2.175818962E-3
2.487113300E0,9.321057005E-4,6.657897611E-4,9.321057005E-4,1.476793174E-3
2.489621841E0,-1.331579551E-4,1.731053460E-3,-1.331579551E-4,1.741266253E-3
2.492130383E0,-1.331579551E-4,6.657897611E-4,-1.198421582E-3,1.377396578E-3
2.494638925E0,-1.331579551E-4,6.657897611E-4,-1.331579551E-4,6.919090172E-4
2.497147466E0,9.321057005E-4,6.657897611E-4,9.321057005E-4,1.476793174E-3
2.499656008E0,-1.198421582E-3,1.731053460E-3,-1.331579551E-4,2.109618783E-3
2.502164550E0,-1.331579551E-4,1.731053460E-3,-1.198421582E-3,2.109618783E-3
2.504673091E0,9.321057005E-4,1.731053460E-3,-1.198421582E-3,2.302516321E-3
2.507181633E0,-1.331579551E-4,1.731053460E-3,-1.198421582E-3,2.109618783E-3
2.509690175E0,-1.331579551E-4,6.657897611E-4,-1.198421582E-3,1.377396578E-3
2.512198716E0,-1.331579551E-4,1.731053460E-3,-1.331579551E-4,1.741266253E-3
2.514707258E0,-1.331579551E-4,1.731053460E-3,-1.331579551E-4,1.741266253E-3
2.517215800E0,-1.331579551E-4,1.731053460E-3,9.321057005E-4,1.970557830E-3
2.519724341E0,-1.331579551E-4,3.861580743E-3,1.997369342E-3,4.349600115E-3
2.522232883E0,9.321057005E-4,2.796316985E-3,9.321057005E-4,3.091444768E-3
2.524741425E0,1.997369342E-3,1.731053460E-3,9.321057005E-4,2.802650782E-3
2.527249966E0,1.997369342E-3,2.796316985E-3,9.321057005E-4,3.560574954E-3
2.529758508E0,1.997369342E-3,1.731053460E-3,-1.198421582E-3,2.902110380E-3
2.532267050E0,-1.331579551E-4,1.731053460E-3,-1.198421582E-3,2.109618783E-3
2.534775591E0,-1.331579551E-4,1.731053460E-3,-1.331579551E-4,1.741266253E-3
2.537284133E0,-1.331579551E-4,6.657897611E-4,-1.331579551E-4,6.919090172E-4
2.539792675E0,-1.331579551E-4,6.657897611E-4,-1.331579551E-4,6.919090172E-4
2.542301216E0,-1.331579551E-4,1.731053460E-3,9.321057005E-4,1.970557830E-3
2.544809758E0,-1.331579551E-4,1.731053460E-3,9.321057005E-4,1.970557830E-3
2.547318300E0,-1.198421582E-3,1.731053460E-3,-1.331579551E-4,2.109618783E-3
2.549826841E0,9.321057005E-4,-3.994738800E-4,-1.198421582E-3,1.569909139E-3
2.552335383E0,9.321057005E-4,1.731053460E-3,-1.198421582E-3,2.302516321E-3
2.554843925E0,-1.198421582E-3,1.731053460E-3,-1.198421582E-3,2.422596677E-3
2.557352466E0,-1.331579551E-4,2.796316985E-3,-1.331579551E-4,2.802650667E-3
2.559861008E0,9.321057005E-4,2.796316985E-3,-1.198421582E-3,3.181890005E-3
2.562369550E0,9.321057005E-4,1.731053460E-3,-1.198421582E-3,2.302516321E-3
2.564878091E0,-1.331579551E-4,6.657897611E-4,-1.331579551E-4,6.919090172E-4
2.567386633E0,-1.331579551E-4,6.657897611E-4,-1.331579551E-4,6.919090172E-4
2.569895175E0,-1.331579551E-4,1.731053460E-3,-1.198421582E-3,2.109618783E-3
2.572403716E0,9.321057005E-4,2.796316985E-3,-1.198421582E-3,3.181890005E-3
2.574912258E0,9.321057005E-4,2.796316985E-3,9.321057005E-4,3.091444768E-3
2.577420800E0,-1.331579551E-4,1.731053460E-3,9.321057005E-4,1.970557830E-3
2.579929341E0,-1.331579551E-4,1.731053460E-3,-1.331579551E-4,1.741266253E-3
2.582437883E0,-1.331579551E-4,2.796316985E-3,-1.331579551E-4,2.802650667E-3
2.584946425E0,-1.331579551E-4,1.731053460E-3,-1.198421582E-3,2.109618783E-3
2.587454966E0,9.321057005E-4,1.731053460E-3,-1.331579551E-4,1.970557830E-3
2.589963508E0,-1.331579551E-4,1.731053460E-3,-1.331579551E-4,1.741266253E-3
2.592472050E0,-1.198421582E-3,2.796316985E-3,-1.331579551E-4,3.045214936E-3
2.594980591E0,-1.331579551E-4,2.796316985E-3,-1.331579551E-4,2.802650667E-3
2.597489133E0,-1.198421582E-3,2.796316985E-3,-1.331579551E-4,3.045214936E-3
2.599997675E0,-1.331579551E-4,1.731053460E-3,-1.198421582E-3,2.109618783E-3
2.602506216E0,-1.331579551E-4,2.796316985E-3,-1.331579551E-4,2.802650667E-3
2.605014758E0,-1.331579551E-4,3.861580743E-3,-1.198421582E-3,4.045460562E-3
2.607523300E0,-1.331579551E-4,2.796316985E-3,-1.331579551E-4,2.802650667E-3
2.610031841E0,-1.331579551E-4,1.731053460E-3,9.321057005E-4,1.970557830E-3
2.612540383E0,9.321057005E-4,1.731053460E-3,-1.331579551E-4,1.970557830E-3
2.615048925E0,9.321057005E-4,6.657897611E-4,-1.198421582E-3,1.657803164E-3
2.617557466E0,9.321057005E-4,1.731053460E-3,-1.331579551E-4,1.970557830E-3
2.620066008E0,-1.331579551E-4,1.731053460E-3,-1.198421582E-3,2.109618783E-3
2.622574550E0,-1.198421582E-3,2.796316985E-3,-1.198421582E-3,3.269834439E-3
2.625083091E0,-1.331579551E-4,3.861580743E-3,-1.331579551E-4,3.866169669E-3
2.627591633E0,-1.198421582E-3,1.731053460E-3,-1.198421582E-3,2.422596677E-3
2.630100175E0,-1.331579551E-4,6.657897611E-4,-1.198421582E-3,1.377396578E-3
2.632608716E0,1.997369342E-3,1.731053460E-3,-1.331579551E-4,2.646462055E-3
2.635117258E0,1.997369342E-3,1.731053460E-3,-1.198421582E-3,2.902110380E-3
2.637625800E0,9.321057005E-4,2.796316985E-3,-2.263685223E-3,3.716514564E-3
2.640134341E0,-1.331579551E-4,1.731053460E-3,-1.331579551E-4,1.741266253E-3
2.642642883E0,-1.198421582E-3,1.731053460E-3,9.321057005E-4,2.302516321E-3
2.645151425E0,-1.198421582E-3,2.796316985E-3,-1.198421582E-3,3.269834439E-3
2.647659966E0,-1.198421582E-3,2.796316985E-3,-1.331579551E-4,3.045214936E-3
2.650168508E0,-1.198421582E-3,2.796316985E-3,-1.198421582E-3,3.269834439E-3
2.652677050E0,9.321057005E-4,2.796316985E-3,-1.198421582E-3,3.181890005E-3
2.655185591E0,1.997369342E-3,1.731053460E-3,-1.331579551E-4,2.646462055E-3
2.657694133E0,9.321057005E-4,6.657897611E-4,-1.331579551E-4,1.153181722E-3
2.660202675E0,9.321057005E-4,1.731053460E-3,-1.198421582E-3,2.302516321E-3
2.662711216E0,9.321057005E-4,1.731053460E-3,-1.198421582E-3,2.302516321E-3
2.665219758E0,9.321057005E-4,1.731053460E-3,-1.331579551E-4,1.970557830E-3
2.667728300E0,-1.331579551E-4,3.861580743E-3,-1.198421582E-3,4.045460562E-3
2.670236841E0,-1.198421582E-3,3.861580743E-3,-1.331579551E-4,4.045460562E-3
2.672745383E0,-1.331579551E-4,3.861580743E-3,-1.198421582E-3,4.045460562E-3
2.675253925E0,9.321057005E-4,2.796316985E-3,-1.331579551E-4,2.950583122E-3
2.677762466E0,9.321057005E-4,1.731053460E-3,-1.331579551E-4,1.970557830E-3
2.680271008E0,-1.331579551E-4,2.796316985E-3,-1.331579551E-4,2.802650667E-3
2.682779550E0,-1.331579551E-4,2.796316985E-3,9.321057005E-4,2.950583122E-3
2.685288091E0,9.321057005E-4,2.796316985E-3,9.321057005E-4,3.091444768E-3
2.687796633E0,-1.198421582E-3,2.796316985E-3,-1.331579551E-4,3.045214936E-3
2.690305175E0,-1.198421582E-3,6.657897611E-4,9.321057005E-4,1.657803164E-3
2.692813716E0,-1.331579551E-4,6.657897611E-4,9.321057005E-4,1.153181722E-3
2.695322258E0,-1.198421582E-3,6.657897611E-4,9.321057005E-4,1.657803164E-3
2.697830852E0,-1.331579551E-4,1.731053460E-3,9.321057005E-4,1.970557830E-3
2.700339446E0,9.321057005E-4,1.731053460E-3,9.321057005E-4,2.175818962E-3
2.702848039E0,-1.331579551E-4,2.796316985E-3,9.321057005E-4,2.950583122E-3
2.705356633E0,9.321057005E-4,2.796316985E-3,-1.331579551E-4,2.950583122E-3
2.707865227E0,-1.331579551E-4,2.796316985E-3,9.321057005E-4,2.950583122E-3
2.710373821E0,-1.331579551E-4,1.731053460E-3,9.321057005E-4,1.970557830E-3
2.712882414E0,-1.331579551E-4,1.731053460E-3,-1.331579551E-4,1.741266253E-3
2.715391008E0,-1.331579551E-4,2.796316985E-3,-1.331579551E-4,2.802650667E-3
2.717899602E0,-1.331579551E-4,2.796316985E-3,9.321057005E-4,2.950583122E-3
2.720408196E0,-1.331579551E-4,1.731053460E-3,9.321057005E-4,1.970557830E-3
2.722916789E0,9.321057005E-4,2.796316985E-3,9.321057005E-4,3.091444768E-3
2.725425383E0,9.321057005E-4,2.796316985E-3,-1.198421582E-3,3.181890005E-3
2.727933977E0,9.321057005E-4,1.731053460E-3,-2.263685223E-3,2.998272487E-3
2.730442571E0,-1.331579551E-4,6.657897611E-4,9.321057005E-4,1.153181722E-3
2.732951164E0,-1.331579551E-4,2.796316985E-3,-1.331579551E-4,2.802650667E-3
2.735459758E0,-1.198421582E-3,1.731053460E-3,-1.331579551E-4,2.109618783E-3
2.737968352E0,-1.331579551E-4,2.796316985E-3,-1.331579551E-4,2.802650667E-3
2.740476946E0,9.321057005E-4,6.657897611E-4,-1.331579551E-4,1.153181722E-3
2.742985539E0,9.321057005E-4,1.731053460E-3,-1.331579551E-4,1.970557830E-3
2.745494133E0,9.321057005E-4,6.657897611E-4,9.321057005E-4,1.476793174E-3
2.748002727E0,9.321057005E-4,1.731053460E-3,-1.331579551E-4,1.970557830E-3
2.750511321E0,9.321057005E-4,1.731053460E-3,-1.331579551E-4,1.970557830E-3
2.753019914E0,-1.331579551E-4,6.657897611E-4,-1.198421582E-3,1.377396578E-3
2.755528508E0,-1.331579551E-4,1.731053460E-3,-1.331579551E-4,1.741266253E-3
2.758037102E0,-1.331579551E-4,1.731053460E-3,-1.331579551E-4,1.741266253E-3
2.760545696E0,-1.331579551E-4,1.731053460E-3,-1.198421582E-3,2.109618783E-3
2.763054289E0,-1.331579551E-4,2.796316985E-3,-1.331579551E-4,2.802650667E-3
2.765562883E0,-1.331579551E-4,1.731053460E-3,9.321057005E-4,1.970557830E-3
2.768071425E0,9.321057005E-4,6.657897611E-4,9.321057005E-4,1.476793174E-3
2.770579966E0,-1.331579551E-4,6.657897611E-4,-1.198421582E-3,1.377396578E-3
2.773088508E0,9.321057005E-4,6.657897611E-4,-1.198421582E-3,1.657803164E-3
2.775597050E0,9.321057005E-4,2.796316985E-3,-1.331579551E-4,2.950583122E-3
2.778105591E0,9.321057005E-4,1.731053460E-3,9.321057005E-4,2.175818962E-3
2.780614133E0,9.321057005E-4,2.796316985E-3,-1.331579551E-4,2.950583122E-3
2.783122675E0,1.997369342E-3,1.731053460E-3,-1.331579551E-4,2.646462055E-3
2.785631216E0,9.321057005E-4,1.731053460E-3,-1.331579551E-4,1.970557830E-3
2.788139758E0,-1.198421582E-3,6.657897611E-4,-1.331579551E-4,1.377396578E-3
2.790648300E0,-1.331579551E-4,-3.994738800E-4,-1.331579551E-4,4.416349882E-4
2.793156841E0,9.321057005E-4,1.731053460E-3,-1.331579551E-4,1.970557830E-3
2.795665383E0,9.321057005E-4,6.657897611E-4,-1.331579551E-4,1.153181722E-3
2.798173925E0,-1.331579551E-4,1.731053460E-3,-1.198421582E-3,2.109618783E-3
2.800682466E0,-1.331579551E-4,1.731053460E-3,-1.198421582E-3,2.109618783E-3
2.803191008E0,-1.331579551E-4,1.731053460E-3,-1.198421582E-3,2.109618783E-3
2.805699550E0,-1.331579551E-4,1.731053460E-3,-1.331579551E-4,1.741266253E-3
2.808208091E0,-1.331579551E-4,1.731053460E-3,-1.331579551E-4,1.741266253E-3
2.810716633E0,-1.331579551E-4,1.731053460E-3,9.321057005E-4,1.970557830E-3
2.813225175E0,-1.331579551E-4,6.657897611E-4,9.321057005E-4,1.153181722E-3
2.815733716E0,-1.331579551E-4,-3.994738800E-4,-1.331579551E-4,4.416349882E-4
2.818242258E0,9.321057005E-4,1.731053460E-3,-1.331579551E-4,1.970557830E-3
2.820750800E0,9.321057005E-4,1.731053460E-3,-1.198421582E-3,2.302516321E-3
2.823259341E0,9.321057005E-4,1.731053460E-3,-1.198421582E-3,2.302516321E-3
2.825767883E0,9.321057005E-4,1.731053460E-3,-1.198421582E-3,2.302516321E-3
2.828276425E0,-1.331579551E-4,-3.994738800E-4,-1.331579551E-4,4.416349882E-4
2.830784966E0,-1.331579551E-4,6.657897611E-4,-1.331579551E-4,6.919090172E-4
2.833293508E0,9.321057005E-4,6.657897611E-4,-1.198421582E-3,1.657803164E-3
2.835802050E0,9.321057005E-4,6.657897611E-4,-1.331579551E-4,1.153181722E-3
2.838310591E0,9.321057005E-4,1.731053460E-3,9.321057005E-4,2.175818962E-3
2.840819133E0,9.321057005E-4,1.731053460E-3,-1.331579551E-4,1.970557830E-3
2.843327675E0,-1.198421582E-3,1.731053460E-3,-1.198421582E-3,2.422596677E-3
2.845836216E0,-1.198421582E-3,6.657897611E-4,-1.198421582E-3,1.820907626E-3
2.848344758E0,-1.331579551E-4,6.657897611E-4,-1.198421582E-3,1.377396578E-3
2.850853300E0,9.321057005E-4,1.731053460E-3,-2.263685223E-3,2.998272487E-3
2.853361841E0,9.321057005E-4,1.731053460E-3,-1.198421582E-3,2.302516321E-3
2.855870383E0,-1.331579551E-4,1.731053460E-3,9.321057005E-4,1.970557830E-3
2.858378925E0,-1.331579551E-4,2.796316985E-3,-1.198421582E-3,3.045214936E-3
2.860887466E0,-1.331579551E-4,1.731053460E-3,-1.198421582E-3,2.109618783E-3
2.863396008E0,9.321057005E-4,1.731053460E-3,-1.331579551E-4,1.970557830E-3
2.865904550E0,-1.331579551E-4,6.657897611E-4,-1.198421582E-3,1.377396578E-3
2.868413091E0,-1.331579551E-4,6.657897611E-4,-1.331579551E-4,6.919090172E-4
2.870921633E0,-1.331579551E-4,6.657897611E-4,9.321057005E-4,1.153181722E-3
2.873430175E0,9.321057005E-4,1.731053460E-3,-1.331579551E-4,1.970557830E-3
2.875938716E0,-1.331579551E-4,1.731053460E-3,9.321057005E-4,1.970557830E-3
2.878447258E0,-1.331579551E-4,1.731053460E-3,9.321057005E-4,1.970557830E-3
2.880955800E0,-1.331579551E-4,1.731053460E-3,9.321057005E-4,1.970557830E-3
2.883464341E0,-1.198421582E-3,1.731053460E-3,-1.331579551E-4,2.109618783E-3
2.885972883E0,-1.331579551E-4,2.796316985E-3,-1.331579551E-4,2.802650667E-3
2.888481425E0,-1.331579551E-4,1.731053460E-3,-1.198421582E-3,2.109618783E-3
2.890989966E0,9.321057005E-4,6.657897611E-4,-1.198421582E-3,1.657803164E-3
2.893498508E0,1.997369342E-3,1.731053460E-3,9.321057005E-4,2.802650782E-3
2.896007050E0,9.321057005E-4,2.796316985E-3,-1.331579551E-4,2.950583122E-3
2.898515591E0,9.321057005E-4,3.861580743E-3,-1.198421582E-3,4.149318155E-3
2.901024133E0,9.321057005E-4,2.796316985E-3,-1.198421582E-3,3.181890005E-3
2.903532675E0,9.321057005E-4,2.796316985E-3,-1.331579551E-4,2.950583122E-3
2.906041216E0,9.321057005E-4,3.861580743E-3,-1.331579551E-4,3.974714821E-3
2.908549758E0,9.321057005E-4,2.796316985E-3,-1.198421582E-3,3.181890005E-3
2.911058300E0,1.997369342E-3,1.731053460E-3,-1.198421582E-3,2.902110380E-3
2.913566841E0,1.997369342E-3,1.731053460E-3,9.321057005E-4,2.802650782E-3
2.916075383E0,1.997369342E-3,1.731053460E-3,-1.331579551E-4,2.646462055E-3
2.918583925E0,1.997369342E-3,1.731053460E-3,9.321057005E-4,2.802650782E-3
2.921092466E0,9.321057005E-4,2.796316985E-3,9.321057005E-4,3.091444768E-3
2.923601008E0,-1.331579551E-4,2.796316985E-3,-1.198421582E-3,3.045214936E-3
2.926109550E0,9.321057005E-4,2.796316985E-3,-1.331579551E-4,2.950583122E-3
2.928618091E0,9.321057005E-4,2.796316985E-3,-1.331579551E-4,2.950583122E-3
2.931126633E0,9.321057005E-4,2.796316985E-3,-1.198421582E-3,3.181890005E-3
2.933635175E0,9.321057005E-4,1.731053460E-3,-1.198421582E-3,2.302516321E-3
2.936143716E0,9.321057005E-4,1.731053460E-3,-1.331579551E-4,1.970557830E-3
2.938652258E0,9.321057005E-4,1.731053460E-3,9.321057005E-4,2.175818962E-3
2.941160800E0,-1.331579551E-4,6.657897611E-4,-1.331579551E-4,6.919090172E-4
2.943669341E0,-1.331579551E-4,6.657897611E-4,-1.331579551E-4,6.919090172E-4
2.946177883E0,-1.331579551E-4,6.657897611E-4,-1.198421582E-3,1.377396578E-3
2.948686425E0,-1.198421582E-3,1.731053460E-3,-1.331579551E-4,2.109618783E-3
2.951194966E0,-1.198421582E-3,6.657897611E-4,-1.331579551E-4,1.377396578E-3
2.953703508E0,-1.198421582E-3,1.731053460E-3,9.321057005E-4,2.302516321E-3
2.956212050E0,-1.198421582E-3,6.657897611E-4,-1.331579551E-4,1.377396578E-3
2.958720591E0,-1.198421582E-3,1.731053460E-3,-1.331579551E-4,2.109618783E-3
2.961229133E0,-1.331579551E-4,6.657897611E-4,-1.331579551E-4,6.919090172E-4
2.963737675E0,-1.331579551E-4,1.731053460E-3,-1.331579551E-4,1.741266253E-3
2.966246216E0,9.321057005E-4,1.731053460E-3,-1.331579551E-4,1.970557830E-3
2.968754758E0,-1.331579551E-4,1.731053460E-3,-1.331579551E-4,1.741266253E-3
2.971263300E0,-1.331579551E-4,6.657897611E-4,-1.331579551E-4,6.919090172E-4
2.973771841E0,9.321057005E-4,2.796316985E-3,-1.198421582E-3,3.181890005E-3
2.976280383E0,9.321057005E-4,2.796316985E-3,-1.198421582E-3,3.181890005E-3
2.978788925E0,-1.331579551E-4,1.731053460E-3,-1.331579551E-4,1.741266253E-3
2.981297466E0,-1.331579551E-4,6.657897611E-4,-1.198421582E-3,1.377396578E-3
2.983806008E0,9.321057005E-4,6.657897611E-4,-1.198421582E-3,1.657803164E-3
2.986314550E0,9.321057005E-4,1.731053460E-3,-1.331579551E-4,1.970557830E-3
2.988823091E0,-1.331579551E-4,1.731053460E-3,-1.198421582E-3,2.109618783E-3
2.991331633E0,-1.331579551E-4,1.731053460E-3,-1.198421582E-3,2.109618783E-3
2.993840175E0,-1.331579551E-4,1.731053460E-3,-1.331579551E-4,1.741266253E-3
2.996348716E0,-1.331579551E-4,1.731053460E-3,-1.331579551E-4,1.741266253E-3
2.998857258E0,-1.331579551E-4,1.731053460E-3,-1.331579551E-4,1.741266253E-3
3.001365800E0,9.321057005E-4,1.731053460E-3,9.321057005E-4,2.175818962E-3
3.003874341E0,9.321057005E-4,6.657897611E-4,-1.331579551E-4,1.153181722E-3
3.006382883E0,9.321057005E-4,6.657897611E-4,9.321057005E-4,1.476793174E-3
3.008891425E0,-1.331579551E-4,1.731053460E-3,1.997369342E-3,2.646462055E-3
3.011399966E0,-1.198421582E-3,1.731053460E-3,9.321057005E-4,2.302516321E-3
3.013908508E0,-1.331579551E-4,6.657897611E-4,-1.331579551E-4,6.919090172E-4
3.016417050E0,-1.198421582E-3,6.657897611E-4,-1.198421582E-3,1.820907626E-3
3.018925591E0,-1.331579551E-4,1.731053460E-3,-1.198421582E-3,2.109618783E-3
3.021434133E0,-1.331579551E-4,6.657897611E-4,-1.198421582E-3,1.377396578E-3
3.023942675E0,-1.331579551E-4,6.657897611E-4,-1.198421582E-3,1.377396578E-3
3.026451216E0,-1.331579551E-4,1.731053460E-3,-1.331579551E-4,1.741266253E-3
3.028959758E0,9.321057005E-4,1.731053460E-3,-1.198421582E-3,2.302516321E-3
3.031468300E0,-1.331579551E-4,1.731053460E-3,-1.331579551E-4,1.741266253E-3
3.033976841E0,-1.331579551E-4,1.731053460E-3,-1.198421582E-3,2.109618783E-3
3.036485383E0,-1.331579551E-4,1.731053460E-3,-1.198421582E-3,2.109618783E-3
3.038993925E0,-1.331579551E-4,1.731053460E-3,-2.263685223E-3,2.852814034E-3
3.041502466E0,9.321057005E-4,2.796316985E-3,-1.331579551E-4,2.950583122E-3
3.044011008E0,9.321057005E-4,6.657897611E-4,-1.331579551E-4,1.153181722E-3
3.046519550E0,9.321057005E-4,6.657897611E-4,-1.331579551E-4,1.153181722E-3
3.049028091E0,9.321057005E-4,2.796316985E-3,-1.331579551E-4,2.950583122E-3
3.051536633E0,1.997369342E-3,2.796316985E-3,-1.331579551E-4,3.438982990E-3
3.054045175E0,1.997369342E-3,2.796316985E-3,-1.331579551E-4,3.438982990E-3
3.056553716E0,9.321057005E-4,1.731053460E-3,-1.331579551E-4,1.970557830E-3
3.059062258E0,9.321057005E-4,1.731053460E-3,-1.331579551E-4,1.970557830E-3
3.061570800E0,-1.198421582E-3,6.657897611E-4,-1.198421582E-3,1.820907626E-3
3.064079341E0,-1.331579551E-4,6.657897611E-4,-1.331579551E-4,6.919090172E-4
3.066587883E0,-1.331579551E-4,-3.994738800E-4,9.321057005E-4,1.022805680E-3
3.069096425E0,-1.331579551E-4,6.657897611E-4,-1.331579551E-4,6.919090172E-4
3.071604966E0,-1.331579551E-4,1.731053460E-3,-1.198421582E-3,2.109618783E-3
3.074113508E0,9.321057005E-4,1.731053460E-3,-1.198421582E-3,2.302516321E-3
3.076622050E0,9.321057005E-4,1.731053460E-3,-1.331579551E-4,1.970557830E-3
3.079130591E0,-1.331579551E-4,1.731053460E-3,-1.198421582E-3,2.109618783E-3
3.081639133E0,-1.331579551E-4,1.731053460E-3,-1.331579551E-4,1.741266253E-3
3.084147675E0,-1.331579551E-4,1.731053460E-3,9.321057005E-4,1.970557830E-3
3.086656216E0,-1.331579551E-4,2.796316985E-3,-1.198421582E-3,3.045214936E-3
3.089164758E0,-1.331579551E-4,2.796316985E-3,-1.198421582E-3,3.045214936E-3
3.091673300E0,9.321057005E-4,1.731053460E-3,-1.331579551E-4,1.970557830E-3
3.094181841E0,1.997369342E-3,1.731053460E-3,-1.198421582E-3,2.902110380E-3
3.096690383E0,9.321057005E-4,2.796316985E-3,-2.263685223E-3,3.716514564E-3
3.099198925E0,-1.331579551E-4,1.731053460E-3,-2.263685223E-3,2.852814034E-3
3.101707466E0,-1.331579551E-4,1.731053460E-3,-1.198421582E-3,2.109618783E-3
3.104216008E0,9.321057005E-4,1.731053460E-3,-1.198421582E-3,2.302516321E-3
3.106724550E0,9.321057005E-4,6.657897611E-4,9.321057005E-4,1.476793174E-3
3.109233091E0,9.321057005E-4,6.657897611E-4,-1.331579551E-4,1.153181722E-3
3.111741633E0,9.321057005E-4,2.796316985E-3,9.321057005E-4,3.091444768E-3
3.114250175E0,-1.331579551E-4,1.731053460E-3,-1.331579551E-4,1.741266253E-3
3.116758716E0,1.997369342E-3,2.796316985E-3,-1.331579551E-4,3.438982990E-3
3.119267258E0,1.997369342E-3,2.796316985E-3,-2.263685223E-3,4.114990128E-3
3.121775800E0,9.321057005E-4,2.796316985E-3,-1.198421582E-3,3.181890005E-3
3.124284341E0,9.321057005E-4,1.731053460E-3,-1.331579551E-4,1.970557830E-3
3.126792883E0,-1.331579551E-4,1.731053460E-3,9.321057005E-4,1.970557830E-3
3.129301425E0,-1.331579551E-4,1.731053460E-3,-1.331579551E-4,1.741266253E-3
3.131809966E0,-1.331579551E-4,2.796316985E-3,-1.331579551E-4,2.802650667E-3
3.134318508E0,-1.331579551E-4,1.731053460E-3,-1.331579551E-4,1.741266253E-3
3.136827050E0,9.321057005E-4,2.796316985E-3,-1.198421582E-3,3.181890005E-3
3.139335591E0,-1.331579551E-4,2.796316985E-3,-1.198421582E-3,3.045214936E-3
3.141844133E0,-1.331579551E-4,1.731053460E-3,-1.331579551E-4,1.741266253E-3
3.144352675E0,-1.331579551E-4,6.657897611E-4,-1.331579551E-4,6.919090172E-4
3.146861216E0,-1.331579551E-4,1.731053460E-3,-1.331579551E-4,1.741266253E-3
3.149369758E0,-1.331579551E-4,2.796316985E-3,-1.331579551E-4,2.802650667E-3
3.151878300E0,-1.331579551E-4,1.731053460E-3,-1.198421582E-3,2.109618783E-3
3.154386841E0,-1.331579551E-4,1.731053460E-3,-1.198421582E-3,2.109618783E-3
3.156895383E0,-1.198421582E-3,1.731053460E-3,-2.263685223E-3,3.091444833E-3
3.159403925E0,-1.198421582E-3,1.731053460E-3,-2.263685223E-3,3.091444833E-3
3.161912466E0,-1.198421582E-3,2.796316985E-3,-1.198421582E-3,3.269834439E-3
3.164421008E0,9.321057005E-4,2.796316985E-3,-1.331579551E-4,2.950583122E-3
3.166929550E0,-1.331579551E-4,1.731053460E-3,-1.331579551E-4,1.741266253E-3
3.169438091E0,-1.331579551E-4,2.796316985E-3,-1.198421582E-3,3.045214936E-3
3.171946633E0,-1.198421582E-3,2.796316985E-3,-1.198421582E-3,3.269834439E-3
3.174455175E0,-1.331579551E-4,1.731053460E-3,-1.331579551E-4,1.741266253E-3
3.176963716E0,-1.331579551E-4,1.731053460E-3,-1.331579551E-4,1.741266253E-3
3.179472258E0,9.321057005E-4,1.731053460E-3,9.321057005E-4,2.175818962E-3
3.181980800E0,-1.331579551E-4,1.731053460E-3,-1.331579551E-4,1.741266253E-3
3.184489341E0,-1.331579551E-4,2.796316985E-3,-1.331579551E-4,2.802650667E-3
3.186997883E0,-1.331579551E-4,2.796316985E-3,-1.331579551E-4,2.802650667E-3
3.189506425E0,-1.331579551E-4,2.796316985E-3,1.997369342E-3,3.438982990E-3
3.192014966E0,-1.331579551E-4,1.731053460E-3,-1.331579551E-4,1.741266253E-3
3.194523508E0,-1.331579551E-4,1.731053460E-3,-1.198421582E-3,2.109618783E-3
3.197032050E0,-1.331579551E-4,1.731053460E-3,9.321057005E-4,1.970557830E-3
3.199540591E0,9.321057005E-4,6.657897611E-4,9.321057005E-4,1.476793174E-3
3.202049133E0,9.321057005E-4,6.657897611E-4,9.321057005E-4,1.476793174E-3
3.204557675E0,9.321057005E-4,6.657897611E-4,-1.331579551E-4,1.153181722E-3
3.207066216E0,9.321057005E-4,-3.994738800E-4,9.321057005E-4,1.377396622E-3
3.209574758E0,9.321057005E-4,6.657897611E-4,-1.331579551E-4,1.153181722E-3
3.212083300E0,9.321057005E-4,6.657897611E-4,-1.331579551E-4,1.153181722E-3
3.214591841E0,9.321057005E-4,1.731053460E-3,9.321057005E-4,2.175818962E-3
3.217100435E0,9.321057005E-4,6.657897611E-4,9.321057005E-4,1.476793174E-3
3.219609029E0,-1.331579551E-4,6.657897611E-4,-1.331579551E-4,6.919090172E-4
3.222117623E0,-1.331579551E-4,6.657897611E-4,-1.331579551E-4,6.919090172E-4
3.224626216E0,9.321057005E-4,1.731053460E-3,-1.198421582E-3,2.302516321E-3
3.227134810E0,9.321057005E-4,2.796316985E-3,-1.198421582E-3,3.181890005E-3
3.229643404E0,9.321057005E-4,1.731053460E-3,-1.331579551E-4,1.970557830E-3
3.232151998E0,9.321057005E-4,1.731053460E-3,-1.331579551E-4,1.970557830E-3
3.234660591E0,-1.331579551E-4,1.731053460E-3,-1.331579551E-4,1.741266253E-3
3.237169185E0,-1.331579551E-4,1.731053460E-3,-1.198421582E-3,2.109618783E-3
3.239677779E0,9.321057005E-4,1.731053460E-3,-1.331579551E-4,1.970557830E-3
3.242186373E0,9.321057005E-4,2.796316985E-3,-1.198421582E-3,3.181890005E-3
3.244694966E0,9.321057005E-4,2.796316985E-3,-1.198421582E-3,3.181890005E-3
3.247203560E0,-1.198421582E-3,2.796316985E-3,9.321057005E-4,3.181890005E-3
3.249712154E0,-1.331579551E-4,2.796316985E-3,9.321057005E-4,2.950583122E-3
3.252220748E0,-1.331579551E-4,1.731053460E-3,-1.331579551E-4,1.741266253E-3
3.254729341E0,9.321057005E-4,1.731053460E-3,-1.331579551E-4,1.970557830E-3
3.257237935E0,9.321057005E-4,1.731053460E-3,-1.331579551E-4,1.970557830E-3
3.259746529E0,-1.331579551E-4,1.731053460E-3,-1.198421582E-3,2.109618783E-3
3.262255123E0,-1.331579551E-4,6.657897611E-4,-1.331579551E-4,6.919090172E-4
3.264763716E0,-1.331579551E-4,6.657897611E-4,9.321057005E-4,1.153181722E-3
3.267272310E0,9.321057005E-4,1.731053460E-3,-1.331579551E-4,1.970557830E-3
3.269780904E0,9.321057005E-4,6.657897611E-4,-1.198421582E-3,1.657803164E-3
3.272289498E0,9.321057005E-4,1.731053460E-3,-2.263685223E-3,2.998272487E-3
3.274798091E0,-1.331579551E-4,1.731053460E-3,-1.198421582E-3,2.109618783E-3
3.277306685E0,-1.331579551E-4,1.731053460E-3,-1.198421582E-3,2.109618783E-3
3.279815279E0,9.321057005E-4,1.731053460E-3,-1.331579551E-4,1.970557830E-3
3.282323873E0,9.321057005E-4,2.796316985E-3,-1.331579551E-4,2.950583122E-3
3.284832466E0,1.997369342E-3,6.657897611E-4,-1.331579551E-4,2.109618765E-3
3.287341008E0,-1.331579551E-4,6.657897611E-4,-1.331579551E-4,6.919090172E-4
3.289849550E0,-1.331579551E-4,2.796316985E-3,-1.331579551E-4,2.802650667E-3
3.292358091E0,9.321057005E-4,2.796316985E-3,-1.331579551E-4,2.950583122E-3
3.294866633E0,-1.331579551E-4,2.796316985E-3,-1.331579551E-4,2.802650667E-3
3.297375175E0,9.321057005E-4,1.731053460E-3,-1.331579551E-4,1.970557830E-3
3.299883716E0,9.321057005E-4,6.657897611E-4,-1.198421582E-3,1.657803164E-3
3.302392258E0,-1.331579551E-4,6.657897611E-4,-1.198421582E-3,1.377396578E-3
3.304900800E0,9.321057005E-4,2.796316985E-3,9.321057005E-4,3.091444768E-3
3.307409341E0,-1.331579551E-4,2.796316985E-3,-1.198421582E-3,3.045214936E-3
3.309917883E0,9.321057005E-4,2.796316985E-3,-2.263685223E-3,3.716514564E-3
3.312426425E0,1.997369342E-3,1.731053460E-3,-1.331579551E-4,2.646462055E-3
3.314934966E0,-1.331579551E-4,1.731053460E-3,-1.198421582E-3,2.109618783E-3
3.317443508E0,-1.331579551E-4,1.731053460E-3,-1.331579551E-4,1.741266253E-3
3.319952050E0,9.321057005E-4,2.796316985E-3,9.321057005E-4,3.091444768E-3
3.322460591E0,-1.331579551E-4,3.861580743E-3,-1.331579551E-4,3.866169669E-3
3.324969133E0,9.321057005E-4,2.796316985E-3,-1.198421582E-3,3.181890005E-3
3.327477675E0,9.321057005E-4,2.796316985E-3,-1.198421582E-3,3.181890005E-3
3.329986216E0,-1.331579551E-4,1.731053460E-3,-1.331579551E-4,1.741266253E-3
3.332494758E0,-1.331579551E-4,1.731053460E-3,-1.198421582E-3,2.109618783E-3
3.335003300E0,-1.331579551E-4,1.731053460E-3,-1.198421582E-3,2.109618783E-3
3.337511841E0,9.321057005E-4,2.796316985E-3,-1.331579551E-4,2.950583122E-3
3.340020383E0,-1.331579551E-4,2.796316985E-3,9.321057005E-4,2.950583122E-3
3.342528925E0,9.321057005E-4,2.796316985E-3,-1.331579551E-4,2.950583122E-3
3.345037466E0,9.321057005E-4,2.796316985E-3,-1.331579551E-4,2.950583122E-3
3.347546008E0,1.997369342E-3,1.731053460E-3,-1.198421582E-3,2.902110380E-3
3.350054550E0,1.997369342E-3,1.731053460E-3,-1.331579551E-4,2.646462055E-3
3.352563091E0,1.997369342E-3,2.796316985E-3,-1.198421582E-3,3.639380065E-3
3.355071633E0,9.321057005E-4,2.796316985E-3,-1.331579551E-4,2.950583122E-3
3.357580175E0,-1.198421582E-3,2.796316985E-3,9.321057005E-4,3.181890005E-3
3.360088716E0,-1.331579551E-4,1.731053460E-3,9.321057005E-4,1.970557830E-3
3.362597258E0,9.321057005E-4,1.731053460E-3,9.321057005E-4,2.175818962E-3
3.365105800E0,-1.331579551E-4,1.731053460E-3,-2.263685223E-3,2.852814034E-3
3.367614341E0,-1.331579551E-4,1.731053460E-3,-1.198421582E-3,2.109618783E-3
3.370122883E0,9.321057005E-4,2.796316985E-3,-1.331579551E-4,2.950583122E-3
3.372631425E0,-1.331579551E-4,2.796316985E-3,-1.198421582E-3,3.045214936E-3
3.375139966E0,-1.331579551E-4,1.731053460E-3,-1.198421582E-3,2.109618783E-3
3.377648508E0,-1.331579551E-4,1.731053460E-3,9.321057005E-4,1.970557830E-3
3.380157050E0,-1.331579551E-4,6.657897611E-4,-1.331579551E-4,6.919090172E-4
3.382665591E0,-1.198421582E-3,1.731053460E-3,-1.198421582E-3,2.422596677E-3
3.385174133E0,-1.331579551E-4,1.731053460E-3,-1.198421582E-3,2.109618783E-3
3.387682675E0,-1.331579551E-4,6.657897611E-4,9.321057005E-4,1.153181722E-3
3.390191216E0,-1.331579551E-4,6.657897611E-4,9.321057005E-4,1.153181722E-3
3.392699758E0,-1.331579551E-4,1.731053460E-3,-1.331579551E-4,1.741266253E-3
3.395208300E0,-1.331579551E-4,2.796316985E-3,-1.331579551E-4,2.802650667E-3
3.397716841E0,-1.198421582E-3,2.796316985E-3,-1.331579551E-4,3.045214936E-3
3.400225383E0,-1.198421582E-3,2.796316985E-3,9.321057005E-4,3.181890005E-3
3.402733925E0,-1.198421582E-3,3.861580743E-3,9.321057005E-4,4.149318155E-3
3.405242466E0,-1.331579551E-4,2.796316985E-3,9.321057005E-4,2.950583122E-3
3.407751008E0,-1.331579551E-4,1.731053460E-3,-1.331579551E-4,1.741266253E-3
3.410259550E0,-1.331579551E-4,2.796316985E-3,-1.331579551E-4,2.802650667E-3
3.412768091E0,-1.198421582E-3,1.731053460E-3,-1.198421582E-3,2.422596677E-3
3.415276633E0,9.321057005E-4,1.731053460E-3,-1.331579551E-4,1.970557830E-3
3.417785175E0,1.997369342E-3,2.796316985E-3,-1.331579551E-4,3.438982990E-3
3.420293716E0,1.997369342E-3,2.796316985E-3,9.321057005E-4,3.560574954E-3
3.422802258E0,9.321057005E-4,1.731053460E-3,-1.198421582E-3,2.302516321E-3
3.425310800E0,-1.331579551E-4,1.731053460E-3,-2.263685223E-3,2.852814034E-3
3.427819341E0,-1.331579551E-4,1.731053460E-3,-2.263685223E-3,2.852814034E-3
3.430327883E0,-1.331579551E-4,1.731053460E-3,-1.198421582E-3,2.109618783E-3
3.432836425E0,-1.331579551E-4,6.657897611E-4,-1.198421582E-3,1.377396578E-3
3.435344966E0,-1.198421582E-3,6.657897611E-4,-1.331579551E-4,1.377396578E-3
3.437853508E0,-1.331579551E-4,1.731053460E-3,-1.331579551E-4,1.741266253E-3
3.440362050E0,-1.331579551E-4,1.731053460E-3,-1.331579551E-4,1.741266253E-3
3.442870591E0,-1.331579551E-4,1.731053460E-3,-1.198421582E-3,2.109618783E-3
3.445379133E0,-1.331579551E-4,2.796316985E-3,-1.198421582E-3,3.045214936E-3
3.447887675E0,-1.331579551E-4,1.731053460E-3,-1.198421582E-3,2.109618783E-3
3.450396216E0,-1.331579551E-4,1.731053460E-3,-1.198421582E-3,2.109618783E-3
3.452904758E0,-1.331579551E-4,2.796316985E-3,-1.331579551E-4,2.802650667E-3
3.455413300E0,-1.331579551E-4,1.731053460E-3,9.321057005E-4,1.970557830E-3
3.457921841E0,-1.198421582E-3,2.796316985E-3,9.321057005E-4,3.181890005E-3
3.460430383E0,-1.331579551E-4,2.796316985E-3,-1.331579551E-4,2.802650667E-3
3.462938925E0,-1.331579551E-4,2.796316985E-3,-1.331579551E-4,2.802650667E-3
3.465447466E0,9.321057005E-4,1.731053460E-3,9.321057005E-4,2.175818962E-3
3.467956008E0,-1.331579551E-4,2.796316985E-3,9.321057005E-4,2.950583122E-3
3.470464550E0,9.321057005E-4,1.731053460E-3,9.321057005E-4,2.175818962E-3
3.472973091E0,9.321057005E-4,6.657897611E-4,9.321057005E-4,1.476793174E-3
3.475481633E0,-1.331579551E-4,1.731053460E-3,-1.331579551E-4,1.741266253E-3
3.477990175E0,9.321057005E-4,2.796316985E-3,-1.198421582E-3,3.181890005E-3
3.480498716E0,-1.331579551E-4,2.796316985E-3,-1.198421582E-3,3.045214936E-3
3.483007258E0,9.321057005E-4,2.796316985E-3,-1.331579551E-4,2.950583122E-3
3.485515800E0,1.997369342E-3,1.731053460E-3,9.321057005E-4,2.802650782E-3
3.488024341E0,-1.331579551E-4,2.796316985E-3,-1.198421582E-3,3.045214936E-3
3.490532883E0,-1.331579551E-4,1.731053460E-3,-1.331579551E-4,1.741266253E-3
3.493041425E0,-1.331579551E-4,1.731053460E-3,1.997369342E-3,2.646462055E-3
3.495549966E0,-1.198421582E-3,2.796316985E-3,9.321057005E-4,3.181890005E-3
3.498058508E0,-1.331579551E-4,2.796316985E-3,9.321057005E-4,2.950583122E-3
3.500567050E0,9.321057005E-4,1.731053460E-3,9.321057005E-4,2.175818962E-3
3.503075591E0,9.321057005E-4,2.796316985E-3,9.321057005E-4,3.091444768E-3
3.505584133E0,-1.331579551E-4,1.731053460E-3,-1.198421582E-3,2.109618783E-3
3.508092675E0,-1.331579551E-4,1.731053460E-3,-1.198421582E-3,2.109618783E-3
3.510601216E0,-1.198421582E-3,1.731053460E-3,-1.331579551E-4,2.109618783E-3
3.513109758E0,-1.198421582E-3,2.796316985E-3,-1.331579551E-4,3.045214936E-3
3.515618300E0,-1.331579551E-4,2.796316985E-3,-1.198421582E-3,3.045214936E-3
3.518126841E0,-1.331579551E-4,1.731053460E-3,-1.331579551E-4,1.741266253E-3
3.520635383E0,-1.331579551E-4,6.657897611E-4,1.997369342E-3,2.109618765E-3
3.523143925E0,-1.198421582E-3,1.731053460E-3,-1.331579551E-4,2.109618783E-3
3.525652466E0,-1.198421582E-3,1.731053460E-3,-1.331579551E-4,2.109618783E-3
3.528161008E0,-1.331579551E-4,3.861580743E-3,-1.198421582E-3,4.045460562E-3
3.530669550E0,-1.331579551E-4,2.796316985E-3,-1.331579551E-4,2.802650667E-3
3.533178091E0,-1.198421582E-3,2.796316985E-3,-1.331579551E-4,3.045214936E-3
3.535686633E0,-1.198421582E-3,1.731053460E-3,9.321057005E-4,2.302516321E-3
3.538195175E0,-1.198421582E-3,2.796316985E-3,-1.331579551E-4,3.045214936E-3
3.540703716E0,-1.331579551E-4,1.731053460E-3,9.321057005E-4,1.970557830E-3
3.543212258E0,-1.331579551E-4,2.796316985E-3,-1.331579551E-4,2.802650667E-3
3.545720800E0,-1.331579551E-4,2.796316985E-3,-1.331579551E-4,2.802650667E-3
3.548229341E0,-1.331579551E-4,1.731053460E-3,-1.331579551E-4,1.741266253E-3
3.550737883E0,-1.331579551E-4,1.731053460E-3,9.321057005E-4,1.970557830E-3
3.553246425E0,-1.198421582E-3,1.731053460E-3,-1.198421582E-3,2.422596677E-3
3.555754966E0,-1.331579551E-4,1.731053460E-3,-2.263685223E-3,2.852814034E-3
3.558263508E0,-1.331579551E-4,1.731053460E-3,-1.331579551E-4,1.741266253E-3
3.560772050E0,-1.331579551E-4,2.796316985E-3,-1.331579551E-4,2.802650667E-3
3.563280591E0,-1.331579551E-4,2.796316985E-3,-1.331579551E-4,2.802650667E-3
3.565789133E0,9.321057005E-4,2.796316985E-3,-1.331579551E-4,2.950583122E-3
3.568297675E0,9.321057005E-4,6.657897611E-4,-1.198421582E-3,1.657803164E-3
3.570806216E0,9.321057005E-4,6.657897611E-4,-1.198421582E-3,1.657803164E-3
3.573314758E0,9.321057005E-4,6.657897611E-4,-1.331579551E-4,1.153181722E-3
3.575823300E0,-1.331579551E-4,1.731053460E-3,9.321057005E-4,1.970557830E-3
3.578331841E0,-1.331579551E-4,2.796316985E-3,-1.331579551E-4,2.802650667E-3
3.580840383E0,9.321057005E-4,1.731053460E-3,-1.198421582E-3,2.302516321E-3
3.583348925E0,9.321057005E-4,1.731053460E-3,-1.198421582E-3,2.302516321E-3
3.585857466E0,9.321057005E-4,1.731053460E-3,-1.331579551E-4,1.970557830E-3
3.588366008E0,9.321057005E-4,2.796316985E-3,-1.331579551E-4,2.950583122E-3
3.590874550E0,9.321057005E-4,2.796316985E-3,9.321057005E-4,3.091444768E-3
3.593383091E0,-1.331579551E-4,2.796316985E-3,9.321057005E-4,2.950583122E-3
3.595891633E0,-1.331579551E-4,2.796316985E-3,-1.331579551E-4,2.802650667E-3
3.598400175E0,-1.198421582E-3,2.796316985E-3,9.321057005E-4,3.181890005E-3
3.600908716E0,-1.331579551E-4,2.796316985E-3,9.321057005E-4,2.950583122E-3
3.603417258E0,-1.331579551E-4,1.731053460E-3,-1.331579551E-4,1.741266253E-3
3.605925800E0,9.321057005E-4,1.731053460E-3,-1.331579551E-4,1.970557830E-3
3.608434341E0,-1.331579551E-4,1.731053460E-3,9.321057005E-4,1.970557830E-3
3.610942883E0,-1.331579551E-4,2.796316985E-3,9.321057005E-4,2.950583122E-3
3.613451425E0,-1.331579551E-4,1.731053460E-3,9.321057005E-4,1.970557830E-3
3.615959966E0,-1.198421582E-3,6.657897611E-4,9.321057005E-4,1.657803164E-3
3.618468508E0,-1.198421582E-3,6.657897611E-4,-1.331579551E-4,1.377396578E-3
3.620977050E0,-1.198421582E-3,6.657897611E-4,9.321057005E-4,1.657803164E-3
3.623485591E0,-1.331579551E-4,2.796316985E-3,-1.331579551E-4,2.802650667E-3
3.625994133E0,-1.331579551E-4,2.796316985E-3,-1.331579551E-4,2.802650667E-3
3.628502675E0,-1.331579551E-4,1.731053460E-3,9.321057005E-4,1.970557830E-3
3.631011216E0,-1.331579551E-4,2.796316985E-3,9.321057005E-4,2.950583122E-3
3.633519758E0,9.321057005E-4,1.731053460E-3,9.321057005E-4,2.175818962E-3
3.636028300E0,-1.331579551E-4,1.731053460E-3,9.321057005E-4,1.970557830E-3
3.638536841E0,9.321057005E-4,6.657897611E-4,9.321057005E-4,1.476793174E-3
3.641045383E0,9.321057005E-4,2.796316985E-3,1.997369342E-3,3.560574954E-3
3.643553925E0,9.321057005E-4,2.796316985E-3,1.997369342E-3,3.560574954E-3
3.646062466E0,9.321057005E-4,1.731053460E-3,9.321057005E-4,2.175818962E-3
3.648571008E0,9.321057005E-4,6.657897611E-4,9.321057005E-4,1.476793174E-3
3.651079550E0,9.321057005E-4,6.657897611E-4,9.321057005E-4,1.476793174E-3
3.653588091E0,-1.331579551E-4,6.657897611E-4,-2.263685223E-3,2.363319241E-3
3.656096633E0,-1.331579551E-4,1.731053460E-3,-1.331579551E-4,1.741266253E-3
3.658605175E0,-1.331579551E-4,1.731053460E-3,-1.331579551E-4,1.741266253E-3
3.661113716E0,-1.331579551E-4,1.731053460E-3,-1.331579551E-4,1.741266253E-3
3.663622258E0,9.321057005E-4,1.731053460E-3,-1.331579551E-4,1.970557830E-3
3.666130800E0,-1.331579551E-4,1.731053460E-3,1.997369342E-3,2.646462055E-3
3.668639341E0,-1.331579551E-4,2.796316985E-3,-1.331579551E-4,2.802650667E-3
3.671147883E0,9.321057005E-4,1.731053460E-3,-2.263685223E-3,2.998272487E-3
3.673656425E0,-1.331579551E-4,1.731053460E-3,-1.198421582E-3,2.109618783E-3
3.676164966E0,-1.198421582E-3,6.657897611E-4,-2.263685223E-3,2.646461993E-3
3.678673508E0,-1.198421582E-3,6.657897611E-4,-1.198421582E-3,1.820907626E-3
3.681182050E0,-1.331579551E-4,1.731053460E-3,-1.331579551E-4,1.741266253E-3
3.683690591E0,9.321057005E-4,1.731053460E-3,-1.331579551E-4,1.970557830E-3
3.686199133E0,9.321057005E-4,1.731053460E-3,-1.198421582E-3,2.302516321E-3
3.688707675E0,9.321057005E-4,1.731053460E-3,-1.198421582E-3,2.302516321E-3
3.691216216E0,-1.331579551E-4,6.657897611E-4,-1.198421582E-3,1.377396578E-3
3.693724758E0,-1.198421582E-3,6.657897611E-4,-1.198421582E-3,1.820907626E-3
3.696233300E0,-1.198421582E-3,2.796316985E-3,-1.198421582E-3,3.269834439E-3
3.698741841E0,-1.198421582E-3,2.796316985E-3,-1.198421582E-3,3.269834439E-3
3.701250383E0,9.321057005E-4,2.796316985E-3,-1.331579551E-4,2.950583122E-3
3.703758925E0,1.997369342E-3,3.861580743E-3,-1.331579551E-4,4.349600115E-3
3.706267466E0,-1.331579551E-4,2.796316985E-3,-1.331579551E-4,2.802650667E-3
3.708776008E0,-1.331579551E-4,2.796316985E-3,-1.331579551E-4,2.802650667E-3
3.711284550E0,-1.331579551E-4,1.731053460E-3,-1.198421582E-3,2.109618783E-3
3.713793091E0,9.321057005E-4,1.731053460E-3,-1.198421582E-3,2.302516321E-3
3.716301633E0,9.321057005E-4,2.796316985E-3,-1.331579551E-4,2.950583122E-3
3.718810175E0,9.321057005E-4,6.657897611E-4,-1.331579551E-4,1.153181722E-3
3.721318716E0,-1.331579551E-4,1.731053460E-3,9.321057005E-4,1.970557830E-3
3.723827258E0,-1.331579551E-4,1.731053460E-3,-1.331579551E-4,1.741266253E-3
3.726335800E0,-1.198421582E-3,2.796316985E-3,-1.331579551E-4,3.045214936E-3
3.728844394E0,-1.331579551E-4,2.796316985E-3,-1.331579551E-4,2.802650667E-3
3.731352987E0,-1.331579551E-4,1.731053460E-3,-1.198421582E-3,2.109618783E-3
3.733861581E0,-1.331579551E-4,1.731053460E-3,-1.198421582E-3,2.109618783E-3
3.736370175E0,-1.198421582E-3,2.796316985E-3,-1.331579551E-4,3.045214936E-3
3.738878769E0,-1.331579551E-4,1.731053460E-3,9.321057005E-4,1.970557830E-3
3.741387362E0,-1.331579551E-4,1.731053460E-3,9.321057005E-4,1.970557830E-3
3.743895956E0,-1.331579551E-4,1.731053460E-3,9.321057005E-4,1.970557830E-3
3.746404550E0,-1.331579551E-4,1.731053460E-3,-1.331579551E-4,1.741266253E-3
3.748913144E0,-2.263685223E-3,2.796316985E-3,-1.331579551E-4,3.600193121E-3
3.751421737E0,-1.198421582E-3,1.731053460E-3,-1.331579551E-4,2.109618783E-3
3.753930331E0,-1.331579551E-4,6.657897611E-4,9.321057005E-4,1.153181722E-3
3.756438925E0,-1.331579551E-4,1.731053460E-3,1.997369342E-3,2.646462055E-3
3.758947519E0,-1.331579551E-4,1.731053460E-3,-1.331579551E-4,1.741266253E-3
3.761456112E0,-1.331579551E-4,1.731053460E-3,-1.331579551E-4,1.741266253E-3
3.763964706E0,-1.331579551E-4,1.731053460E-3,-1.331579551E-4,1.741266253E-3
3.766473300E0,-1.331579551E-4,2.796316985E-3,9.321057005E-4,2.950583122E-3
3.768981894E0,-1.331579551E-4,2.796316985E-3,9.321057005E-4,2.950583122E-3
3.771490487E0,-1.331579551E-4,1.731053460E-3,1.997369342E-3,2.646462055E-3
3.773999081E0,-1.198421582E-3,1.731053460E-3,9.321057005E-4,2.302516321E-3
3.776507675E0,-1.331579551E-4,1.731053460E-3,-1.331579551E-4,1.741266253E-3
3.779016269E0,-1.198421582E-3,1.731053460E-3,-1.198421582E-3,2.422596677E-3
3.781524862E0,-1.331579551E-4,2.796316985E-3,-1.198421582E-3,3.045214936E-3
3.784033456E0,9.321057005E-4,6.657897611E-4,-1.331579551E-4,1.153181722E-3
3.786542050E0,9.321057005E-4,6.657897611E-4,9.321057005E-4,1.476793174E-3
3.789050644E0,9.321057005E-4,6.657897611E-4,-1.331579551E-4,1.153181722E-3
3.791559237E0,-1.331579551E-4,1.731053460E-3,-1.331579551E-4,1.741266253E-3
3.794067831E0,-1.331579551E-4,2.796316985E-3,-2.263685223E-3,3.600193121E-3
3.796576425E0,-1.331579551E-4,2.796316985E-3,-2.263685223E-3,3.600193121E-3
3.799084966E0,9.321057005E-4,2.796316985E-3,-1.331579551E-4,2.950583122E-3
3.801593508E0,9.321057005E-4,1.731053460E-3,-1.331579551E-4,1.970557830E-3
3.804102050E0,-1.331579551E-4,1.731053460E-3,9.321057005E-4,1.970557830E-3
3.806610591E0,9.321057005E-4,2.796316985E-3,-1.331579551E-4,2.950583122E-3
3.809119133E0,9.321057005E-4,2.796316985E-3,-1.198421582E-3,3.181890005E-3
3.811627675E0,9.321057005E-4,1.731053460E-3,-1.331579551E-4,1.970557830E-3
3.814136216E0,9.321057005E-4,2.796316985E-3,-1.331579551E-4,2.950583122E-3
3.816644758E0,-1.198421582E-3,1.731053460E-3,-1.198421582E-3,2.422596677E-3
3.819153300E0,-1.198421582E-3,6.657897611E-4,-1.331579551E-4,1.377396578E-3
3.821661841E0,-1.331579551E-4,6.657897611E-4,9.321057005E-4,1.153181722E-3
3.824170383E0,-1.331579551E-4,2.796316985E-3,-1.331579551E-4,2.802650667E-3
3.826678925E0,-1.331579551E-4,6.657897611E-4,9.321057005E-4,1.153181722E-3
3.829187466E0,9.321057005E-4,6.657897611E-4,9.321057005E-4,1.476793174E-3
3.831696008E0,-1.331579551E-4,1.731053460E-3,9.321057005E-4,1.970557830E-3
3.834204550E0,-1.198421582E-3,1.731053460E-3,-1.331579551E-4,2.109618783E-3
3.836713091E0,-1.331579551E-4,6.657897611E-4,-1.331579551E-4,6.919090172E-4
3.839221633E0,-1.331579551E-4,1.731053460E-3,-1.198421582E-3,2.109618783E-3
3.841730175E0,-1.331579551E-4,2.796316985E-3,-1.198421582E-3,3.045214936E-3
3.844238716E0,-1.331579551E-4,2.796316985E-3,-1.198421582E-3,3.045214936E-3
3.846747258E0,9.321057005E-4,1.731053460E-3,-1.331579551E-4,1.970557830E-3
3.849255800E0,1.997369342E-3,1.731053460E-3,-1.331579551E-4,2.646462055E-3
3.851764341E0,9.321057005E-4,2.796316985E-3,-1.331579551E-4,2.950583122E-3
3.854272883E0,9.321057005E-4,1.731053460E-3,-1.331579551E-4,1.970557830E-3
3.856781425E0,9.321057005E-4,1.731053460E-3,-1.198421582E-3,2.302516321E-3
3.859289966E0,1.997369342E-3,1.731053460E-3,-1.198421582E-3,2.902110380E-3
3.861798508E0,9.321057005E-4,2.796316985E-3,-1.331579551E-4,2.950583122E-3
3.864307050E0,-1.331579551E-4,1.731053460E-3,-1.198421582E-3,2.109618783E-3
3.866815591E0,-1.331579551E-4,6.657897611E-4,-1.198421582E-3,1.377396578E-3
3.869324133E0,-1.331579551E-4,1.731053460E-3,-1.198421582E-3,2.109618783E-3
3.871832675E0,-1.331579551E-4,-3.994738800E-4,-1.198421582E-3,1.270245925E-3
3.874341216E0,-1.331579551E-4,1.731053460E-3,-1.198421582E-3,2.109618783E-3
3.876849758E0,9.321057005E-4,1.731053460E-3,9.321057005E-4,2.175818962E-3
3.879358300E0,9.321057005E-4,1.731053460E-3,9.321057005E-4,2.175818962E-3
3.881866841E0,-1.331579551E-4,1.731053460E-3,-1.198421582E-3,2.109618783E-3
3.884375383E0,-1.331579551E-4,6.657897611E-4,-1.198421582E-3,1.377396578E-3
3.886883925E0,9.321057005E-4,6.657897611E-4,-1.331579551E-4,1.153181722E-3
3.889392466E0,-1.331579551E-4,6.657897611E-4,-1.198421582E-3,1.377396578E-3
3.891901008E0,-1.331579551E-4,6.657897611E-4,-1.198421582E-3,1.377396578E-3
3.894409550E0,-1.331579551E-4,6.657897611E-4,9.321057005E-4,1.153181722E-3
3.896918091E0,-1.198421582E-3,6.657897611E-4,-1.331579551E-4,1.377396578E-3
3.899426633E0,-1.331579551E-4,2.796316985E-3,-1.331579551E-4,2.802650667E-3
3.901935175E0,-1.198421582E-3,3.861580743E-3,9.321057005E-4,4.149318155E-3
3.904443716E0,-1.198421582E-3,2.796316985E-3,-1.331579551E-4,3.045214936E-3
3.906952258E0,-1.331579551E-4,3.861580743E-3,-1.198421582E-3,4.045460562E-3
3.909460800E0,-1.198421582E-3,2.796316985E-3,-2.263685223E-3,3.792080399E-3
3.911969341E0,-1.198421582E-3,1.731053460E-3,-1.198421582E-3,2.422596677E-3
3.914477883E0,-1.331579551E-4,1.731053460E-3,-1.198421582E-3,2.109618783E-3
3.916986425E0,-1.331579551E-4,1.731053460E-3,-1.331579551E-4,1.741266253E-3
3.919494966E0,-1.331579551E-4,1.731053460E-3,-1.198421582E-3,2.109618783E-3
3.922003508E0,-1.331579551E-4,2.796316985E-3,-1.331579551E-4,2.802650667E-3
3.924512050E0,-1.198421582E-3,1.731053460E-3,-1.331579551E-4,2.109618783E-3
3.927020591E0,-1.198421582E-3,1.731053460E-3,9.321057005E-4,2.302516321E-3
3.929529133E0,-1.198421582E-3,1.731053460E-3,-1.331579551E-4,2.109618783E-3
3.932037675E0,-1.331579551E-4,6.657897611E-4,-1.331579551E-4,6.919090172E-4
3.934546216E0,-1.331579551E-4,1.731053460E-3,9.321057005E-4,1.970557830E-3
3.937054758E0,9.321057005E-4,1.731053460E-3,1.997369342E-3,2.802650782E-3
3.939563300E0,9.321057005E-4,2.796316985E-3,-1.331579551E-4,2.950583122E-3
3.942071841E0,9.321057005E-4,2.796316985E-3,-1.331579551E-4,2.950583122E-3
3.944580383E0,-1.331579551E-4,1.731053460E-3,-1.198421582E-3,2.109618783E-3
3.947088925E0,-1.331579551E-4,1.731053460E-3,-1.331579551E-4,1.741266253E-3
3.949597466E0,-1.331579551E-4,6.657897611E-4,9.321057005E-4,1.153181722E-3
3.952106008E0,-1.331579551E-4,6.657897611E-4,9.321057005E-4,1.153181722E-3
3.954614550E0,9.321057005E-4,6.657897611E-4,-1.331579551E-4,1.153181722E-3
3.957123091E0,1.997369342E-3,6.657897611E-4,-1.331579551E-4,2.109618765E-3
3.959631633E0,9.321057005E-4,1.731053460E-3,-1.331579551E-4,1.970557830E-3
3.962140175E0,9.321057005E-4,2.796316985E-3,-1.198421582E-3,3.181890005E-3
3.964648716E0,-1.331579551E-4,2.796316985E-3,-1.198421582E-3,3.045214936E-3
3.967157258E0,-1.331579551E-4,2.796316985E-3,-1.198421582E-3,3.045214936E-3
3.969665800E0,-1.331579551E-4,2.796316985E-3,9.321057005E-4,2.950583122E-3
3.972174341E0,-1.198421582E-3,6.657897611E-4,9.321057005E-4,1.657803164E-3
3.974682883E0,-1.198421582E-3,1.731053460E-3,9.321057005E-4,2.302516321E-3
3.977191425E0,-1.331579551E-4,6.657897611E-4,9.321057005E-4,1.153181722E-3
3.979699966E0,-1.198421582E-3,6.657897611E-4,-1.331579551E-4,1.377396578E-3
3.982208508E0,-1.198421582E-3,6.657897611E-4,9.321057005E-4,1.657803164E-3
3.984717050E0,-1.198421582E-3,1.731053460E-3,-1.331579551E-4,2.109618783E-3
3.987225591E0,-1.331579551E-4,1.731053460E-3,-1.331579551E-4,1.741266253E-3
3.989734133E0,-1.331579551E-4,6.657897611E-4,-1.198421582E-3,1.377396578E-3
3.992242675E0,-1.331579551E-4,2.796316985E-3,-1.331579551E-4,2.802650667E-3
3.994751216E0,9.321057005E-4,2.796316985E-3,-1.198421582E-3,3.181890005E-3
3.997259758E0,9.321057005E-4,2.796316985E-3,-1.198421582E-3,3.181890005E-3
3.999768300E0,1.997369342E-3,2.796316985E-3,-1.331579551E-4,3.438982990E-3
