"Time (s)","Gyroscope x (rad/s)","Gyroscope y (rad/s)","Gyroscope z (rad/s)","Absolute (rad/s)"
2.300219700E-2,-7.989477515E-1,2.107890397E-1,4.428833723E-1,9.374941122E-1
2.550251000E-2,-7.382277250E-1,3.673827946E-1,4.514054656E-1,9.400623310E-1
2.800344700E-2,-6.359623671E-1,6.060018539E-1,4.663191736E-1,9.945551523E-1
3.050532200E-2,-5.123918056E-1,8.574040532E-1,4.897549450E-1,1.112450888E0
3.300834300E-2,-3.536675274E-1,1.147155762E0,5.153213143E-1,1.306370207E0
3.551271800E-2,-1.640505940E-1,1.475257039E0,5.462139249E-1,1.581659123E0
3.801855100E-2,5.113265663E-2,1.827859282E0,5.834981799E-1,1.919415075E0
4.052589500E-2,2.812296152E-1,2.183657408E0,6.325002909E-1,2.290743632E0
4.303474900E-2,5.187833905E-1,2.520280600E0,6.953508258E-1,2.665419906E0
4.554506200E-2,7.637940049E-1,2.821750164E0,7.709845304E-1,3.023255268E0
4.805667600E-2,1.013065696E0,3.076348305E0,8.594014645E-1,3.350938954E0
5.056943700E-2,1.261272192E0,3.278748274E0,9.510141015E-1,3.639426549E0
5.308313500E-2,1.509478569E0,3.431081057E0,1.040496230E0,3.890176753E0
5.559751000E-2,1.753423929E0,3.546129465E0,1.116129994E0,4.110386335E0
5.811235300E-2,1.987782001E0,3.648394823E0,1.164066792E0,4.314755331E0
6.062735300E-2,2.214683056E0,3.751725435E0,1.181111097E0,4.513899445E0
6.314099900E-2,2.429866314E0,3.864643335E0,1.163001537E0,4.710869451E0
6.564964500E-2,2.636527538E0,3.990344524E0,1.115064740E0,4.910956756E0
6.815829100E-2,2.838927507E0,4.124567509E0,1.041561484E0,5.114334449E0
7.066693700E-2,3.043458223E0,4.258790970E0,9.467530847E-1,5.319424770E0
7.317558300E-2,3.250119448E0,4.391948700E0,8.359656334E-1,5.527325605E0
7.568422800E-2,3.461041689E0,4.521911144E0,7.134603262E-1,5.738947256E0
7.819287400E-2,3.674094200E0,4.649742603E0,5.898897648E-1,5.955421430E0
8.070152000E-2,3.883951187E0,4.779704571E0,4.673844278E-1,6.176495836E0
8.321016600E-2,4.092742920E0,4.913928032E0,3.512706757E-1,6.404734530E0
8.571881200E-2,4.299404144E0,5.051347256E0,2.415485233E-1,6.637720300E0
8.822745800E-2,4.506065369E0,5.184504986E0,1.467400640E-1,6.870607666E0
9.073610300E-2,4.709530354E0,5.312336445E0,6.151897460E-2,7.099604161E0
9.324474900E-2,4.909800053E0,5.434842110E0,-8.788425475E-3,7.324187501E0
9.575339500E-2,5.109004498E0,5.555216789E0,-5.779055133E-2,7.547562539E0
9.826204100E-2,5.303947449E0,5.681982994E0,-8.548741043E-2,7.773293857E0
1.007706870E-1,5.495695114E0,5.814075947E0,-8.974846452E-2,8.000887369E0
1.032793330E-1,5.681050777E0,5.953625202E0,-6.950845569E-2,8.229509245E0
1.057879780E-1,5.853623867E0,6.086783409E0,-2.583264373E-2,8.444792003E0
1.082966240E-1,6.002760410E0,6.190114021E0,4.021370411E-2,8.622775730E0
1.108052700E-1,6.124200821E0,6.240181446E0,1.243695319E-1,8.744207680E0
1.133139160E-1,6.213682652E0,6.209288597E0,2.213085145E-1,8.787155082E0
1.158225620E-1,6.272272110E0,6.080391884E0,3.214432895E-1,8.741618195E0
1.183312080E-1,6.303164959E0,5.846033573E0,4.215780795E-1,8.607190315E0
1.208398530E-1,6.315948009E0,5.517932415E0,5.131907463E-1,8.402508086E0
1.233484990E-1,6.310621738E0,5.107806206E0,5.877591968E-1,8.139968786E0
1.258571450E-1,6.281859875E0,4.597544670E0,6.399571300E-1,7.810808256E0
1.283657910E-1,6.204095364E0,3.945603371E0,6.633929610E-1,7.382321820E0
1.308744370E-1,6.068807125E0,3.140264034E0,6.676539779E-1,6.865671122E0
1.333830830E-1,5.879189968E0,2.199636221E0,6.559360623E-1,6.311380697E0
1.358917280E-1,5.654419422E0,1.165265322E0,6.325002909E-1,5.807784336E0
1.384003740E-1,5.418996334E0,8.295740932E-2,5.984118581E-1,5.452568198E0
1.409090200E-1,5.178246498E0,-1.011068344E0,5.579318404E-1,5.305448514E0
1.434176660E-1,4.921517849E0,-2.089115143E0,5.153213143E-1,5.371340249E0
1.459263120E-1,4.639223099E0,-3.116029263E0,4.705802202E-1,5.608339778E0
1.484349580E-1,4.329231262E0,-4.051330566E0,4.173170328E-1,5.943877201E0
1.509436030E-1,3.988347054E0,-4.853474140E0,3.470096290E-1,6.291545051E0
1.534522490E-1,3.615504742E0,-5.492632389E0,2.596580088E-1,6.580904754E0
1.559608950E-1,3.212835073E0,-5.957087517E0,1.563274413E-1,6.770054591E0
1.584695410E-1,2.789925575E0,-6.247904301E0,4.660528526E-2,6.842672352E0
1.609781870E-1,2.352102041E0,-6.386388779E0,-5.459476262E-2,6.805977243E0
1.634868330E-1,1.896169305E0,-6.391715050E0,-1.398158520E-1,6.668510162E0
1.659954780E-1,1.411474347E0,-6.283058167E0,-2.069274634E-1,6.442972818E0
1.685041240E-1,8.990825415E-1,-6.082788467E0,-2.527337968E-1,6.154066893E0
1.710127700E-1,3.579285741E-1,-5.809015751E0,-2.793653905E-1,5.826733380E0
1.735214160E-1,-2.130527347E-1,-5.480914593E0,-2.900180221E-1,5.492715785E0
1.760300620E-1,-8.127961755E-1,-5.117659569E0,-2.846917212E-1,5.189617179E0
1.785387080E-1,-1.435975432E0,-4.738425732E0,-2.601906359E-1,4.958064443E0
1.810473530E-1,-2.087916851E0,-4.364518166E0,-2.186453640E-1,4.843162334E0
1.835560510E-1,-2.763293982E0,-4.014046669E0,-1.557948142E-1,4.875719056E0
1.860647490E-1,-3.458910942E0,-3.692337036E0,-7.163897902E-2,5.059896228E0
1.885734470E-1,-4.172637463E0,-3.410042048E0,3.275685757E-2,5.388911130E0
1.910821450E-1,-4.899147511E0,-3.173553467E0,1.531316489E-1,5.839224027E0
1.935908430E-1,-5.635244846E0,-2.969022989E0,2.884201407E-1,6.376069962E0
1.960995410E-1,-6.377733231E0,-2.788993359E0,4.322307110E-1,6.974294839E0
1.986082390E-1,-7.113830566E0,-2.631334305E0,5.888244510E-1,7.607707919E0
2.011169370E-1,-7.836079121E0,-2.498176336E0,7.592666745E-1,8.259631159E0
2.036256350E-1,-8.545544624E0,-2.411890030E0,9.403614998E-1,8.929043969E0
2.061343330E-1,-9.250749588E0,-2.388454199E0,1.126782656E0,9.620328505E0
2.086430310E-1,-9.934648514E0,-2.415085793E0,1.313203812E0,1.030797675E1
2.111517280E-1,-1.059617710E1,-2.498176336E0,1.495363832E0,1.098890200E1
2.136604260E-1,-1.124918365E1,-2.655835390E0,1.675393343E0,1.167923531E1
2.161691240E-1,-1.190432072E1,-2.886997700E0,1.846900821E0,1.238784283E1
2.186778220E-1,-1.255200195E1,-3.169292450E0,2.008821011E0,1.310085988E1
2.211865200E-1,-1.316985416E1,-3.464370489E0,2.167545080E0,1.378931373E1
2.236952180E-1,-1.376214123E1,-3.742404222E0,2.322008371E0,1.444970046E1
2.262039160E-1,-1.435868835E1,-3.999132872E0,2.467949629E0,1.510813590E1
2.287126140E-1,-1.495097542E1,-4.172770977E0,2.600042343E0,1.573861188E1
2.312213120E-1,-1.550597763E1,-4.190880299E0,2.718286514E0,1.629073054E1
2.337300100E-1,-1.600452042E1,-4.018307686E0,2.819486618E0,1.674039949E1
2.362387080E-1,-1.642743111E1,-3.660378933E0,2.908968687E0,1.707984091E1
2.387474060E-1,-1.675020599E1,-3.146921873E0,2.981406689E0,1.730206069E1
2.412561030E-1,-1.692704010E1,-2.469414234E0,3.041061401E0,1.737442798E1
2.437648010E-1,-1.689508057E1,-1.583114982E0,3.084737301E0,1.724719121E1
2.462734990E-1,-1.660426521E1,-4.890891612E-1,3.096455097E0,1.689759940E1
2.487821970E-1,-1.604819679E1,6.667218804E-1,3.037865639E0,1.634679681E1
2.512908950E-1,-1.523433495E1,1.754356027E0,2.882337093E0,1.560354426E1
2.537995930E-1,-1.419037724E1,2.734398603E0,2.634130716E0,1.468953323E1
2.563082910E-1,-1.292164803E1,3.635611534E0,2.295376778E0,1.361820155E1
2.588169890E-1,-1.144838810E1,4.465452194E0,1.886315584E0,1.243237869E1
2.613256870E-1,-9.839839935E0,5.138698578E0,1.453818560E0,1.119563582E1
2.638343850E-1,-8.178029060E0,5.550955772E0,1.053279400E0,9.939953058E0
2.663430830E-1,-6.542849064E0,5.654286385E0,7.241129875E-1,8.677797417E0
2.688517810E-1,-4.989695072E0,5.492366314E0,4.876244366E-1,7.436458985E0
2.713604780E-1,-3.546262741E0,5.152546883E0,3.438138366E-1,6.264417512E0
2.738691760E-1,-2.211487293E0,4.714723587E0,2.841590643E-1,5.215365848E0
2.763778740E-1,-9.800425768E-1,4.249203682E0,2.926811874E-1,4.370569489E0
2.788865720E-1,1.661811322E-1,3.786879063E0,3.576622605E-1,3.807360174E0
2.813952700E-1,1.243162632E0,3.339468241E0,4.577970505E-1,3.592642426E0
2.839039680E-1,2.264750481E0,2.915493488E0,5.728455186E-1,3.735953561E0
2.864126660E-1,3.234140396E0,2.525606871E0,6.815024018E-1,4.159663411E0
2.889213640E-1,4.161984921E0,2.180461407E0,7.571361065E-1,4.759179079E0
2.914300620E-1,5.035501003E0,1.891775012E0,7.912245989E-1,5.437013833E0
2.939387600E-1,5.846167088E0,1.670200229E0,7.773761153E-1,6.129563773E0
2.964474580E-1,6.591851234E0,1.509345412E0,7.166560888E-1,6.800310450E0
2.989561560E-1,7.267228603E0,1.403884292E0,6.079992056E-1,7.426517738E0
3.014648530E-1,7.875494003E0,1.345294833E0,4.556665123E-1,8.002553090E0
3.039735510E-1,8.414517403E0,1.329315901E0,2.724411786E-1,8.523227562E0
3.064822490E-1,8.884298325E0,1.343164325E0,7.323687524E-2,8.985555674E0
3.089909470E-1,9.291229248E0,1.370861173E0,-1.302284747E-1,9.392718496E0
3.114995930E-1,9.640635490E0,1.391101122E0,-3.326285779E-1,9.746161129E0
3.140082390E-1,9.930387497E0,1.390035868E0,-5.350286365E-1,1.004146659E1
3.165168850E-1,1.016474533E1,1.357012749E0,-7.342329621E-1,1.028117840E1
3.190255310E-1,1.035223198E1,1.287770629E0,-9.313067198E-1,1.047350908E1
3.215341760E-1,1.050030327E1,1.198288441E0,-1.123054147E0,1.062795910E1
3.240428220E-1,1.061428738E1,1.107740998E0,-1.307344794E0,1.075171321E1
3.265514680E-1,1.070696449E1,1.034237862E0,-1.472460628E0,1.085711181E1
3.290601140E-1,1.078899002E1,9.969536066E-1,-1.619467020E0,1.095531358E1
3.315687600E-1,1.086249352E1,1.003345251E0,-1.743037581E0,1.104711035E1
3.340774060E-1,1.093173504E1,1.051282048E0,-1.842107177E0,1.113559086E1
3.365860510E-1,1.099884701E1,1.143959999E0,-1.917740822E0,1.122323527E1
3.390946970E-1,1.105743694E1,1.278183222E0,-1.971004009E0,1.130422580E1
3.416033430E-1,1.110324287E1,1.433711648E0,-2.000831366E0,1.137281221E1
3.441119890E-1,1.113520050E1,1.587109685E0,-2.012549400E0,1.142637136E1
3.466206350E-1,1.114265728E1,1.716006517E0,-2.001896620E0,1.145037465E1
3.491292810E-1,1.112880898E1,1.811880350E0,-1.975265145E0,1.144705080E1
3.516379260E-1,1.109791660E1,1.863012910E0,-1.936915636E0,1.141867822E1
3.541465720E-1,1.104678440E1,1.863012910E0,-1.895370364E0,1.136198449E1
3.566552180E-1,1.097967243E1,1.804423451E0,-1.850629210E0,1.127980404E1
3.591638640E-1,1.089019012E1,1.679787636E0,-1.802692413E0,1.116546584E1
3.616725100E-1,1.076981544E1,1.495496988E0,-1.754755497E0,1.101383688E1
3.641811560E-1,1.060576439E1,1.240898967E0,-1.710014462E0,1.081416747E1
3.666898010E-1,1.040229988E1,9.191893935E-1,-1.680187106E0,1.057713480E1
3.691984470E-1,1.015089703E1,5.271723270E-1,-1.668469191E0,1.030060244E1
3.717070930E-1,9.844100952E0,7.337003201E-2,-1.669534445E0,9.984941261E0
3.742157390E-1,9.469128609E0,-4.326302111E-1,-1.672730207E0,9.625465799E0
3.767243850E-1,9.019587517E0,-9.791104198E-1,-1.656751275E0,9.222604891E0
3.792330310E-1,8.469911575E0,-1.589506507E0,-1.602422833E0,8.765482985E0
3.817416760E-1,7.812643528E0,-2.254230976E0,-1.494831204E0,8.267616133E0
3.842503220E-1,7.104243279E0,-2.881671190E0,-1.339302659E0,7.782546693E0
3.867589680E-1,6.386255741E0,-3.413237810E0,-1.153946877E0,7.332533541E0
3.892676140E-1,5.648027897E0,-3.829756021E0,-9.526119828E-1,6.890190121E0
3.917762600E-1,4.881038189E0,-4.115246773E0,-7.512772083E-1,6.428390720E0
3.942849060E-1,4.089547157E0,-4.271840572E0,-5.531381369E-1,5.939611067E0
3.967935510E-1,3.279946804E0,-4.308059216E0,-3.411506712E-1,5.425293450E0
3.993021970E-1,2.459693670E0,-4.236686707E0,-1.078579426E-1,4.900126584E0
4.018108430E-1,1.635179639E0,-4.068375111E0,1.520663798E-1,4.387324091E0
4.043194890E-1,8.117309213E-1,-3.812711716E0,4.418180883E-1,3.923121326E0
4.068281350E-1,-7.456845604E-3,-3.477153778E0,7.550055981E-1,3.558185978E0
4.093367810E-1,-8.191877604E-1,-3.077679873E0,1.076715231E0,3.361918749E0
4.118454260E-1,-1.624527097E0,-2.633464813E0,1.400555372E0,3.396436450E0
4.143540720E-1,-2.423474789E0,-2.166879416E0,1.718003988E0,3.676973505E0
4.168627180E-1,-3.216030836E0,-1.703489661E0,2.021604061E0,4.163125550E0
4.193713640E-1,-4.002195358E0,-1.264601111E0,2.307094812E0,4.789516691E0
4.218800100E-1,-4.784099102E0,-8.704535365E-1,2.564888477E0,5.497630988E0
4.243886560E-1,-5.556415081E0,-5.231776237E-1,2.793920279E0,6.241270215E0
4.268973010E-1,-6.318078518E0,-2.302301079E-1,2.994189739E0,6.995448110E0
4.294059990E-1,-7.071219921E0,-1.331579551E-4,3.163566589E0,7.746631833E0
4.319146970E-1,-7.820100307E0,1.575258672E-1,3.300985813E0,8.489716754E0
4.344233950E-1,-8.566850662E0,2.246374637E-1,3.408577442E0,9.222786587E0
4.369320930E-1,-9.314664841E0,1.852227151E-1,3.487406731E0,9.947828620E0
4.394407910E-1,-1.005502319E1,4.354264960E-2,3.543865919E0,1.066134949E1
4.419494890E-1,-1.077940273E1,-1.769669205E-1,3.577954292E0,1.135907556E1
4.444581870E-1,-1.149099922E1,-4.358259737E-1,3.594998360E0,1.204811274E1
4.469668850E-1,-1.218448544E1,-7.032071352E-1,3.589672089E0,1.272171102E1
4.494755830E-1,-1.285453606E1,-9.599357247E-1,3.564105749E0,1.337398309E1
4.519842810E-1,-1.349689007E1,-1.184706330E0,3.517234325E0,1.399787512E1
4.544929780E-1,-1.411154747E1,-1.374323249E0,3.455448866E0,1.459330885E1
4.570016760E-1,-1.470063782E1,-1.527721167E0,3.384076357E0,1.516227743E1
4.595103740E-1,-1.526309776E1,-1.664075017E0,3.306312084E0,1.570550854E1
4.620190720E-1,-1.580425167E1,-1.776992917E0,3.227482557E0,1.622802263E1
4.645277700E-1,-1.631770897E1,-1.839843512E0,3.147587776E0,1.672004662E1
4.670364680E-1,-1.678961945E1,-1.811081290E0,3.064497232E0,1.716282261E1
4.695451660E-1,-1.720187759E1,-1.655552864E0,2.970753908E0,1.753484607E1
4.720538640E-1,-1.753530502E1,-1.356213808E0,2.856770754E0,1.781817548E1
4.745625620E-1,-1.773237801E1,-8.853672147E-1,2.718286514E0,1.796135258E1
4.770712600E-1,-1.773237801E1,-2.035985142E-1,2.556366444E0,1.791685496E1
4.795799580E-1,-1.745434570E1,7.050713897E-1,2.363553762E0,1.762775357E1
4.820886560E-1,-1.690253830E1,1.668069720E0,2.133456707E0,1.711811599E1
4.845973530E-1,-1.611317825E1,2.511758566E0,1.861814499E0,1.641370762E1
4.871060510E-1,-1.507880688E1,3.198853493E0,1.560344934E0,1.549315193E1
4.896147490E-1,-1.382073021E1,3.747464418E0,1.238635302E0,1.437324913E1
4.921234470E-1,-1.239008141E1,4.174634933E0,9.233172536E-1,1.310702899E1
4.946321450E-1,-1.083799267E1,4.472908974E0,6.420876384E-1,1.174228582E1
4.971408430E-1,-9.230509758E0,4.630568027E0,4.205128253E-1,1.033543911E1
4.996495410E-1,-7.634744644E0,4.651873112E0,2.660495937E-1,8.944273677E0
5.021582390E-1,-6.106091022E0,4.541085720E0,1.680453420E-1,7.611441804E0
5.046669370E-1,-4.670115948E0,4.305662632E0,1.105211005E-1,6.353025152E0
5.071756350E-1,-3.339601517E0,3.975430727E0,8.175898343E-2,5.192655610E0
5.096843330E-1,-2.104960918E0,3.577022076E0,7.004108280E-2,4.151006282E0
5.121930310E-1,-9.598025680E-1,3.131742001E0,7.004108280E-2,3.276268408E0
5.147017280E-1,1.022653133E-1,2.680070162E0,9.028109163E-2,2.683539629E0
5.172104260E-1,1.067394137E0,2.285922527E0,1.286305785E-1,2.526127050E0
5.197191240E-1,1.963280916E0,1.956756115E0,1.808284968E-1,2.777780660E0
5.222278220E-1,2.812295914E0,1.662743330E0,2.351569533E-1,3.275518658E0
5.247365200E-1,3.619765759E0,1.397492766E0,2.788327634E-1,3.890171961E0
5.272452180E-1,4.380363941E0,1.164199948E0,3.001380265E-1,4.542359807E0
5.297539160E-1,5.093025684E0,9.703220129E-1,2.926811874E-1,5.192889148E0
5.322626140E-1,5.749228001E0,8.201198578E-1,2.564622164E-1,5.813087996E0
5.347713120E-1,6.343645096E0,7.135934830E-1,1.946769357E-1,6.386622571E0
5.372800100E-1,6.870950699E0,6.443513632E-1,1.126516312E-1,6.902017283E0
5.397887080E-1,7.331144333E0,6.060018539E-1,1.677790284E-2,7.356167275E0
5.422974060E-1,7.726356983E0,5.889576077E-1,-8.974846452E-2,7.749291457E0
5.448061030E-1,8.055523872E0,5.921534300E-1,-2.037316710E-1,8.079827791E0
5.473148010E-1,8.322904587E0,6.038713455E-1,-3.198454082E-1,8.350910277E0
5.498234990E-1,8.531696320E0,6.241113544E-1,-4.327633679E-1,8.565432926E0
5.523321970E-1,8.690421104E0,6.443513632E-1,-5.424855351E-1,8.731145298E0
5.548408950E-1,8.795882225E0,6.613955498E-1,-6.458160877E-1,8.844323977E0
5.573495930E-1,8.855536461E0,6.805703044E-1,-7.416898012E-1,8.912564486E0
5.598582390E-1,8.875776291E0,7.018755674E-1,-8.279761672E-1,8.941900168E0
5.623668850E-1,8.860862732E0,7.274419069E-1,-9.036098719E-1,8.936474186E0
5.648755310E-1,8.824644089E0,7.657914162E-1,-9.696562290E-1,8.910724605E0
5.673841760E-1,8.775641441E0,8.222503662E-1,-1.020788908E0,8.872992075E0
5.698928220E-1,8.723443985E0,8.946883082E-1,-1.052746773E0,8.832169490E0
5.724014680E-1,8.670180321E0,9.852356911E-1,-1.071921587E0,8.791571648E0
5.749101140E-1,8.619048119E0,1.084305286E0,-1.076182604E0,8.753392338E0
5.774187600E-1,8.575372696E0,1.185505271E0,-1.068725705E0,8.722649497E0
5.799274060E-1,8.538087845E0,1.279248476E0,-1.052746773E0,8.697338471E0
5.824360510E-1,8.507195473E0,1.360208511E0,-1.026115179E0,8.676142828E0
5.849446970E-1,8.477368355E0,1.417732716E0,-9.962878227E-1,8.652648710E0
5.874533430E-1,8.453931808E0,1.456082225E0,-9.621993899E-1,8.632205172E0
5.899619890E-1,8.433691978E0,1.476322293E0,-9.302414656E-1,8.612318915E0
5.924706350E-1,8.419843674E0,1.483779073E0,-8.982835412E-1,8.596643598E0
5.949792810E-1,8.407060623E0,1.479518056E0,-8.684561849E-1,8.580318068E0
5.974879260E-1,8.398538589E0,1.462473869E0,-8.439550996E-1,8.566594450E0
5.999965720E-1,8.390016556E0,1.428385377E0,-8.183888197E-1,8.549995488E0
6.025052180E-1,8.377233505E0,1.372991681E0,-7.928224802E-1,8.525943634E0
6.050138640E-1,8.359124184E0,1.290966392E0,-7.661908865E-1,8.492855810E0
6.075225100E-1,8.333557129E0,1.173787355E0,-7.395592928E-1,8.448248287E0
6.100311560E-1,8.298403740E0,1.010802031E0,-7.086666226E-1,8.389721912E0
6.125398010E-1,8.251532555E0,8.073366880E-1,-6.788392663E-1,8.318678067E0
6.150484470E-1,8.199334145E0,5.687175989E-1,-6.479465961E-1,8.244534851E0
6.175570930E-1,8.145006180E0,2.992059290E-1,-6.234455705E-1,8.174309404E0
6.200657390E-1,8.081089973E0,1.997369342E-3,-6.117276549E-1,8.104210626E0
6.225743850E-1,8.004390717E0,-3.218427896E-1,-6.095971465E-1,8.034019057E0
6.250830310E-1,7.908517361E0,-6.701840162E-1,-6.170539856E-1,7.960813343E0
6.275916760E-1,7.793468952E0,-1.034504175E0,-6.362286806E-1,7.887530927E0
6.301003220E-1,7.651788712E0,-1.404150605E0,-6.617950201E-1,7.807655350E0
6.326089680E-1,7.489868641E0,-1.769536018E0,-6.884266138E-1,7.726792425E0
6.351176140E-1,7.304512978E0,-2.130660534E0,-7.139929533E-1,7.642343233E0
6.376262600E-1,7.097851753E0,-2.487523794E0,-7.342329621E-1,7.556875821E0
6.401349060E-1,6.869885445E0,-2.832669258E0,-7.459508777E-1,7.468318677E0
6.426435510E-1,6.620613575E0,-3.158639908E0,-7.523424625E-1,7.373977852E0
6.451521970E-1,6.348971367E0,-3.457978964E0,-7.512772083E-1,7.268526218E0
6.476608430E-1,6.050697327E0,-3.732816935E0,-7.321024537E-1,7.147085728E0
6.501694890E-1,5.727922440E0,-3.978892803E0,-6.980140209E-1,7.009130259E0
6.526781350E-1,5.376385689E0,-4.193010807E0,-6.479465961E-1,6.848846435E0
6.551867810E-1,4.992890835E0,-4.374105453E0,-5.819002390E-1,6.663359910E0
6.576954260E-1,4.581698895E0,-4.515785694E0,-5.030707717E-1,6.452702178E0
6.602040720E-1,4.149201870E0,-4.604202747E0,-4.146538675E-1,6.211803033E0
6.627127180E-1,3.696464777E0,-4.632964611E0,-3.177148700E-1,5.935415375E0
6.652213640E-1,3.221357346E0,-4.596745968E0,-2.122537792E-1,5.617140581E0
6.677300100E-1,2.724944353E0,-4.497676373E0,-9.614004195E-2,5.259625214E0
6.702386560E-1,2.209356785E0,-4.340017319E0,3.275685757E-2,4.870121224E0
6.727473010E-1,1.674594402E0,-4.135486603E0,1.755021811E-1,4.465122268E0
6.752559470E-1,1.118526816E0,-3.890475988E0,3.320959508E-1,4.061673716E0
6.777646450E-1,5.422192216E-1,-3.607115746E0,5.004075766E-1,3.681805729E0
6.802733430E-1,-5.432844535E-2,-3.297124147E0,6.783066392E-1,3.366612410E0
6.827820410E-1,-6.700508595E-1,-2.969022989E0,8.615319729E-1,3.163274096E0
6.852907390E-1,-1.302817464E0,-2.624942780E0,1.050083637E0,3.112930064E0
6.877994370E-1,-1.948367238E0,-2.274471045E0,1.237570047E0,3.240514319E0
6.903081350E-1,-2.606700182E0,-1.927195072E0,1.420795441E0,3.539438708E0
6.928168330E-1,-3.277816296E0,-1.589506507E0,1.595498562E0,3.976961939E0
6.953255310E-1,-3.962780714E0,-1.276319027E0,1.760614514E0,4.520219543E0
6.978342280E-1,-4.654136658E0,-9.972199202E-1,1.910816669E0,5.129001457E0
7.003429260E-1,-5.351884365E0,-7.586008906E-1,2.050366163E0,5.781188716E0
7.028516240E-1,-6.053893089E0,-5.625923872E-1,2.177132607E0,6.458021223E0
7.053603220E-1,-6.758032322E0,-4.113249183E-1,2.288985252E0,7.147002346E0
7.078690200E-1,-7.466433048E0,-3.175817132E-1,2.389120102E0,7.845787116E0
7.103777180E-1,-8.172702789E0,-2.909501195E-1,2.482863188E0,8.546480706E0
7.128864160E-1,-8.875776291E0,-3.399522603E-1,2.573410749E0,9.247562662E0
7.153951140E-1,-9.572459221E0,-4.741754830E-1,2.667153835E0,9.948393212E0
7.179038120E-1,-1.025209713E1,-6.872282028E-1,2.758766413E0,1.063901172E1
7.204125100E-1,-1.091469097E1,-9.620662332E-1,2.845052958E0,1.132035233E1
7.229212080E-1,-1.156130600E1,-1.284841061E0,2.924947739E0,1.199457929E1
7.254299060E-1,-1.218981171E1,-1.653422356E0,2.996320248E0,1.266109197E1
7.279386030E-1,-1.279701233E1,-2.067809820E0,3.055974960E0,1.331834618E1
7.304473010E-1,-1.337331963E1,-2.514155388E0,3.110303402E0,1.395853296E1
7.329559990E-1,-1.391660404E1,-2.961565971E0,3.153979301E0,1.457361748E1
7.354646970E-1,-1.442366982E1,-3.388736725E0,3.188067675E0,1.515551263E1
7.379733950E-1,-1.489025497E1,-3.761579037E0,3.215764523E0,1.569109020E1
7.404820930E-1,-1.530357742E1,-4.056657314E0,3.236004591E0,1.615944542E1
7.429907910E-1,-1.565830994E1,-4.256926537E0,3.248787880E0,1.654867718E1
7.454994890E-1,-1.593101788E1,-4.317646503E0,3.253048897E0,1.682324966E1
7.480081870E-1,-1.607056808E1,-4.131225586E0,3.232808828E0,1.690506540E1
7.505168850E-1,-1.600878143E1,-3.604985237E0,3.177415133E0,1.671445388E1
7.530255830E-1,-1.567961597E1,-2.705902815E0,3.076215029E0,1.620602869E1
7.555342810E-1,-1.510863400E1,-1.635312796E0,2.915360212E0,1.547399090E1
7.580429780E-1,-1.433844852E1,-5.849629045E-1,2.670349598E0,1.459671383E1
7.605516760E-1,-1.336799335E1,3.918838501E-1,2.335856915E0,1.357619412E1
7.630603740E-1,-1.219939899E1,1.285640001E0,1.922534585E0,1.241669623E1
7.655690720E-1,-1.086142826E1,2.083522558E0,1.457014322E0,1.115502491E1
7.680777700E-1,-9.400951385E0,2.734398603E0,9.797762632E-1,9.839450401E0
7.705864680E-1,-7.882950783E0,3.164765120E0,5.398223400E-1,8.511642583E0
7.730951660E-1,-6.363884926E0,3.343729496E0,1.733716577E-1,7.190939857E0
7.756038640E-1,-4.891690731E0,3.292596817E0,-1.067926809E-1,5.897561927E0
7.781125620E-1,-3.504717350E0,3.067826033E0,-3.038664460E-1,4.667647704E0
7.806212600E-1,-2.220009327E0,2.731202841E0,-4.242412448E-1,3.545122142E0
7.831299580E-1,-1.041827798E0,2.334924698E0,-4.849612713E-1,2.602396192E0
7.856386560E-1,3.834949061E-2,1.922667742E0,-5.020055175E-1,1.987493766E0
7.881473530E-1,1.031175256E0,1.534911752E0,-4.892223179E-1,1.912750629E0
7.906560510E-1,1.959019780E0,1.202549458E0,-4.561991692E-1,2.343501948E0
7.931647490E-1,2.832535982E0,9.415599108E-1,-4.157191217E-1,3.013738135E0
7.956734470E-1,3.663441658E0,7.668566704E-1,-3.731085956E-1,3.761393885E0
7.981821450E-1,4.451736927E0,6.709829569E-1,-3.326285779E-1,4.514290815E0
8.006908430E-1,5.196355820E0,6.411555409E-1,-2.964096069E-1,5.244144629E0
8.031995410E-1,5.889842510E0,6.635261178E-1,-2.761695981E-1,5.933530260E0
8.057081870E-1,6.525804996E0,7.274419069E-1,-2.751043439E-1,6.571984858E0
8.082168330E-1,7.096786499E0,8.201198578E-1,-2.974748611E-1,7.150207444E0
8.107254780E-1,7.601721287E0,9.341030717E-1,-3.464770019E-1,7.666730815E0
8.132341240E-1,8.039545059E0,1.062999964E0,-4.210454524E-1,8.120439209E0
8.157427700E-1,8.414517403E0,1.199353695E0,-5.179844499E-1,8.515330898E0
8.182514160E-1,8.726639748E0,1.333576918E0,-6.351634264E-1,8.850768399E0
8.207600620E-1,8.983367920E0,1.462473869E0,-7.619298100E-1,9.133469551E0
8.232687080E-1,9.190029144E0,1.574326515E0,-8.982835412E-1,9.367072807E0
8.257773530E-1,9.348753929E0,1.668069720E0,-1.041028857E0,9.553292506E0
8.282859990E-1,9.463802338E0,1.738377094E0,-1.185904741E0,9.694940931E0
8.307946450E-1,9.539436340E0,1.789509773E0,-1.333976388E0,9.797075274E0
8.333032910E-1,9.588438034E0,1.834250808E0,-1.480982780E0,9.874002732E0
8.358119370E-1,9.617199898E0,1.880057216E0,-1.621597528E0,9.932508623E0
8.383205830E-1,9.634243965E0,1.937581420E0,-1.748363972E0,9.981465580E0
8.408292280E-1,9.641700745E0,2.011084557E0,-1.861281872E0,1.002353354E1
8.433378740E-1,9.644897461E0,2.102697372E0,-1.956090331E0,1.006338276E1
8.458465200E-1,9.644897461E0,2.210289001E0,-2.034919977E0,1.010199603E1
8.483551660E-1,9.645962715E0,2.326402664E0,-2.097770452E0,1.014186309E1
8.508638120E-1,9.644897461E0,2.441451073E0,-2.144642115E0,1.017763333E1
8.533724580E-1,9.640635490E0,2.552238464E0,-2.177665234E0,1.020774215E1
8.558811030E-1,9.637439728E0,2.659830093E0,-2.196840048E0,1.023626137E1
8.583897490E-1,9.631048203E0,2.768486977E0,-2.206427336E0,1.026108821E1
8.608983950E-1,9.618265152E0,2.880339622E0,-2.202166319E0,1.027895507E1
8.634070410E-1,9.601221085E0,2.994323015E0,-2.188317776E0,1.029262607E1
8.659156870E-1,9.577785492E0,3.101914644E0,-2.163816690E0,1.029747309E1
8.684243330E-1,9.549023628E0,3.202049255E0,-2.127597809E0,1.029386439E1
8.709329780E-1,9.506412506E0,3.285139799E0,-2.080726147E0,1.027100012E1
8.734416240E-1,9.449954033E0,3.341598988E0,-2.025332451E0,1.022594184E1
8.759502700E-1,9.380711555E0,3.355447292E0,-1.960351467E0,1.015380489E1
8.784589160E-1,9.295490265E0,3.319228411E0,-1.897500873E0,1.005106592E1
8.809675620E-1,9.191094398E0,3.220158815E0,-1.843172431E0,9.911756840E0
8.834762080E-1,9.065393448E0,3.048651457E0,-1.797366023E0,9.731708930E0
8.859848530E-1,8.913061142E0,2.806836605E0,-1.770734429E0,9.510861742E0
8.884934990E-1,8.734096527E0,2.503236294E0,-1.772865057E0,9.257088343E0
8.910021450E-1,8.527435303E0,2.161286831E0,-1.800561905E0,8.979439670E0
8.935107910E-1,8.295207977E0,1.774596095E0,-1.836780787E0,8.679483299E0
8.960194370E-1,8.035284042E0,1.330381155E0,-1.872999787E0,8.357262223E0
8.985280830E-1,7.731683731E0,8.254461884E-1,-1.897500873E0,8.003799366E0
9.010367280E-1,7.376950741E0,2.576606572E-1,-1.910284042E0,7.624629589E0
9.035453740E-1,6.976411819E0,-3.548659384E-1,-1.909218788E0,7.241641257E0
9.060540200E-1,6.531131268E0,-9.844367504E-1,-1.886848211E0,6.869132953E0
9.085626660E-1,6.056023598E0,-1.589506507E0,-1.842107177E0,6.526508378E0
9.110713120E-1,5.560676098E0,-2.132791042E0,-1.773930311E0,6.214237286E0
9.135799580E-1,5.054676056E0,-2.581266880E0,-1.682317615E0,5.919702804E0
9.160886030E-1,4.542284012E0,-2.923216581E0,-1.572595477E0,5.625886220E0
9.185972490E-1,4.024566174E0,-3.169292450E0,-1.441568017E0,5.321622484E0
9.211059470E-1,3.494064808E0,-3.332277775E0,-1.289235353E0,4.997468544E0
9.236146450E-1,2.949715137E0,-3.424955845E0,-1.112401605E0,4.654952122E0
9.261233430E-1,2.398973703E0,-3.461174726E0,-9.100014567E-1,4.308469330E0
9.286320410E-1,1.840775609E0,-3.447326183E0,-6.873613596E-1,3.967994241E0
9.311407390E-1,1.274055362E0,-3.387671471E0,-4.466117918E-1,3.646779010E0
9.336494370E-1,6.988129616E-1,-3.286471605E0,-1.920137703E-1,3.365427827E0
9.361581350E-1,1.161137372E-1,-3.145856619E0,7.536740601E-2,3.148900842E0
9.386668330E-1,-4.793686271E-1,-2.978610277E0,3.480748832E-1,3.036950706E0
9.411755310E-1,-1.089764714E0,-2.792189121E0,6.282392144E-1,3.062448650E0
9.436842280E-1,-1.715074420E0,-2.589789152E0,9.084035754E-1,3.236307336E0
9.461929260E-1,-2.359559059E0,-2.372475386E0,1.183241606E0,3.549115257E0
9.487016240E-1,-3.025348663E0,-2.149835110E0,1.446361661E0,3.983275987E0
9.512103220E-1,-3.715639591E0,-1.926129818E0,1.693502903E0,4.514853899E0
9.537190200E-1,-4.431496620E0,-1.703489661E0,1.922534585E0,5.122126370E0
9.562277180E-1,-5.169724464E0,-1.478719115E0,2.135587215E0,5.785619588E0
9.587364160E-1,-5.928192139E0,-1.257144213E0,2.330530643E0,6.492707192E0
9.612451140E-1,-6.705834389E0,-1.044091582E0,2.505233765E0,7.234261420E0
9.637538120E-1,-7.504782200E0,-8.544746041E-1,2.654370785E0,8.006095614E0
9.662625100E-1,-8.326100349E0,-7.021418810E-1,2.784332752E0,8.807352560E0
9.687712080E-1,-9.169789314E0,-6.105292439E-1,2.898316145E0,9.636286551E0
9.712799060E-1,-1.003158760E1,-6.105292439E-1,2.999516010E0,1.048821205E1
9.737886030E-1,-1.089764690E1,-7.053377032E-1,3.088998318E0,1.134892594E1
9.762973010E-1,-1.175944519E1,-8.736493587E-1,3.168893099E0,1.221022923E1
9.788059990E-1,-1.260526466E1,-1.093093634E0,3.236004591E0,1.305983448E1
9.813146970E-1,-1.342871380E1,-1.342365384E0,3.289267778E0,1.389070126E1
9.838233950E-1,-1.422340012E1,-1.612942338E0,3.328682661E0,1.469649013E1
9.863320930E-1,-1.498506355E1,-1.918672919E0,3.355314255E0,1.547551515E1
9.888407910E-1,-1.571050835E1,-2.270210028E0,3.369162560E0,1.622729745E1
9.913494890E-1,-1.639334297E1,-2.667553425E0,3.376619339E0,1.694871952E1
9.938581870E-1,-1.702824020E1,-3.079810381E0,3.380880594E0,1.763169164E1
9.963668850E-1,-1.760028648E1,-3.460109472E0,3.383011103E0,1.825341628E1
9.988755830E-1,-1.810202599E1,-3.761579037E0,3.386206865E0,1.879625544E1
1.001384281E0,-1.851747704E1,-3.958652735E0,3.396859407E0,1.923815327E1
1.003892978E0,-1.881681633E1,-4.004459381E0,3.410707951E0,1.953819850E1
1.006401676E0,-1.892653847E1,-3.776492834E0,3.417099476E0,1.959980422E1
1.008910374E0,-1.875609779E1,-3.147987127E0,3.396859407E0,1.931941203E1
1.011419072E0,-1.823198700E1,-2.132791042E0,3.338269949E0,1.865738979E1
1.013927770E0,-1.742984390E1,-1.049417853E0,3.221091032E0,1.775601768E1
1.016436468E0,-1.640825653E1,-1.055942550E-1,3.018690825E0,1.668396017E1
1.018945166E0,-1.515657139E1,7.317029834E-1,2.730004311E0,1.541784580E1
1.021453864E0,-1.368863773E1,1.468865395E0,2.369945288E0,1.396971758E1
1.023962562E0,-1.207795906E1,2.011084557E0,1.977928281E0,1.240297369E1
1.026471260E0,-1.039590740E1,2.281661510E0,1.600824952E0,1.076306232E1
1.028979958E0,-8.708530426E0,2.271008968E0,1.270593166E0,9.089025850E0
1.031488656E0,-7.072285175E0,2.020672083E0,1.002146721E0,7.423249377E0
1.033997353E0,-5.527653217E0,1.620132804E0,7.997466922E-1,5.815442818E0
1.036506051E0,-4.081025124E0,1.161004186E0,6.612623930E-1,4.294178004E0
1.039014749E0,-2.724944353E0,7.146587372E-1,5.803023577E-1,2.876249235E0
1.041523447E0,-1.444497466E0,3.183806837E-1,5.483444333E-1,1.577536309E0
1.044032145E0,-2.247706354E-1,-7.590003312E-3,5.568665862E-1,6.005662674E-1
1.046540843E0,9.427583218E-1,-2.568616867E-1,5.941507816E-1,1.143584859E0
1.049049489E0,2.066611528E0,-4.198470414E-1,6.516750455E-1,2.207223394E0
1.051558135E0,3.146788836E0,-5.029376149E-1,7.134603262E-1,3.265616612E0
1.054066781E0,4.179029465E0,-5.167860389E-1,7.635276914E-1,4.279524461E0
1.056575426E0,5.149484634E0,-4.709796906E-1,7.912245989E-1,5.231161461E0
1.059084072E0,6.040044785E0,-3.729754388E-1,7.848330140E-1,6.102230292E0
1.061592718E0,6.840057850E0,-2.323606312E-1,7.422224283E-1,6.884132261E0
1.064101364E0,7.550588608E0,-5.446160212E-2,6.591318846E-1,7.579499273E0
1.066610010E0,8.170572281E0,1.575258672E-1,5.323655009E-1,8.189412605E0
1.069118656E0,8.706399918E0,3.865575492E-1,3.704454303E-1,8.722846788E0
1.071627301E0,9.161267281E0,6.241113544E-1,1.829590350E-1,9.184323991E0
1.074135947E0,9.553284645E0,8.542082906E-1,-2.370211668E-2,9.591427480E0
1.076644593E0,9.885646820E0,1.064065218E0,-2.410158962E-1,9.945669233E0
1.079153239E0,1.015409279E1,1.247290611E0,-4.572644234E-1,1.024062620E1
1.081661885E0,1.036927605E1,1.390035868E0,-6.703171730E-1,1.048348275E1
1.084170531E0,1.053439236E1,1.489105463E0,-8.812393546E-1,1.067555339E1
1.086679176E0,1.065050602E1,1.546629667E0,-1.083639383E0,1.081663608E1
1.089187822E0,1.072294426E1,1.577522278E0,-1.266864777E0,1.091215178E1
1.091696468E0,1.075916290E1,1.606284380E0,-1.425589085E0,1.097141924E1
1.094205114E0,1.077301121E1,1.656351805E0,-1.557681799E0,1.101034261E1
1.096713760E0,1.077088070E1,1.745833993E0,-1.662077546E0,1.103731440E1
1.099222406E0,1.076768494E1,1.883252978E0,-1.737711310E0,1.106839289E1
1.101731051E0,1.076129341E1,2.052629948E0,-1.784582973E0,1.109970549E1
1.104239697E0,1.075490189E1,2.244377375E0,-1.805888176E0,1.113401888E1
1.106748343E0,1.075490189E1,2.449973106E0,-1.810149193E0,1.117796596E1
1.109256989E0,1.075916290E1,2.671548128E0,-1.806953430E0,1.123217862E1
1.111765635E0,1.077088070E1,2.901644945E0,-1.799496651E0,1.129909742E1
1.114274281E0,1.078472900E1,3.134937763E0,-1.790974498E0,1.137302968E1
1.116782926E0,1.079431629E1,3.358643055E0,-1.776060820E0,1.144343215E1
1.119291572E0,1.079857731E1,3.555716991E0,-1.755820751E0,1.150370817E1
1.121800218E0,1.079325104E1,3.710180044E0,-1.723862886E0,1.154259101E1
1.124308864E0,1.077088070E1,3.806053877E0,-1.678056598E0,1.154615915E1
1.126817510E0,1.072614002E1,3.834815979E0,-1.615206003E0,1.150498952E1
1.129326156E0,1.065689754E1,3.790074825E0,-1.542768121E0,1.141552741E1
1.131834801E0,1.056208897E1,3.679287434E0,-1.463938594E0,1.127998207E1
1.134343447E0,1.044491005E1,3.504584312E0,-1.381913304E0,1.110351032E1
1.136852093E0,1.030642605E1,3.267030478E0,-1.303083777E0,1.089008418E1
1.139360739E0,1.014130974E1,2.973017693E0,-1.233841658E0,1.063989486E1
1.141869385E0,9.952757835E0,2.638524771E0,-1.179513216E0,1.036390143E1
1.144378031E0,9.743966103E0,2.274204731E0,-1.145424724E0,1.007119061E1
1.146886676E0,9.514934540E0,1.889644504E0,-1.124119401E0,9.765673560E0
1.149395322E0,9.263532639E0,1.510410666E0,-1.117727876E0,9.452179269E0
1.151903968E0,8.988694191E0,1.172722101E0,-1.116662621E0,9.133391254E0
1.154412614E0,8.685094833E0,8.776440620E-1,-1.102814198E0,8.798711867E0
1.156921260E0,8.355928421E0,6.390250325E-1,-1.070856333E0,8.448468859E0
1.159429906E0,8.005455971E0,4.866923392E-1,-1.022919416E0,8.085206173E0
1.161938551E0,7.629418373E0,4.110586047E-1,-9.621993899E-1,7.700832523E0
1.164447249E0,7.225683212E0,3.822965026E-1,-8.844351172E-1,7.289641553E0
1.166955947E0,6.798512459E0,3.822965026E-1,-7.938877344E-1,6.855375993E0
1.169464645E0,6.354297638E0,4.099933505E-1,-6.916224360E-1,6.404961718E0
1.171973343E0,5.893038273E0,4.589954615E-1,-5.797697306E-1,5.939251625E0
1.174482041E0,5.415800571E0,5.133239031E-1,-4.647212625E-1,5.459886731E0
1.176990739E0,4.924713612E0,5.665870905E-1,-3.518033028E-1,4.969667056E0
1.179499437E0,4.420844078E0,6.091976166E-1,-2.495380044E-1,4.469592075E0
1.182008135E0,3.902060747E0,6.230461001E-1,-1.547295451E-1,3.954517132E0
1.184516833E0,3.368363619E0,6.028060913E-1,-6.844318658E-2,3.422562362E0
1.187025531E0,2.814426422E0,5.484775901E-1,9.321057238E-3,2.867387423E0
1.189534228E0,2.243445158E0,4.653870463E-1,8.069372177E-2,2.292627915E0
1.192042926E0,1.660745978E0,3.556649089E-1,1.499358565E-1,1.705008942E0
1.194551624E0,1.061002612E0,2.246374637E-1,2.170474678E-1,1.106028090E0
1.197060322E0,4.431496859E-1,7.763108611E-2,2.916159332E-1,5.361418489E-1
1.199569020E0,-1.928127259E-1,-8.535424620E-2,3.693801761E-1,4.253278842E-1
1.202077718E0,-8.468846083E-1,-2.547311783E-1,4.450138807E-1,9.900196296E-1
1.204586416E0,-1.514804840E0,-4.198470414E-1,5.153213143E-1,1.654225287E0
1.207095114E0,-2.190181971E0,-5.657881498E-1,5.739107728E-1,2.333749530E0
1.209603812E0,-2.873016119E0,-6.797713637E-1,6.197171211E-1,3.016680301E0
1.212112510E0,-3.560111046E0,-7.575356364E-1,6.591318846E-1,3.699014158E0
1.214621208E0,-4.252532482E0,-7.958850861E-1,6.953508258E-1,4.381892097E0
1.217129906E0,-4.947084427E0,-8.001461625E-1,7.315698266E-1,5.064491349E0
1.219638603E0,-5.645897388E0,-7.788408995E-1,7.699192762E-1,5.751132598E0
1.222147301E0,-6.345775604E0,-7.372955680E-1,8.103992939E-1,6.439659913E0
1.224655999E0,-7.046719074E0,-6.872282028E-1,8.519446254E-1,7.131223034E0
1.227164697E0,-7.751923561E0,-6.414218545E-1,8.934898973E-1,7.829563531E0
1.229673395E0,-8.458193779E0,-6.126597524E-1,9.350351691E-1,8.531745703E0
1.232182093E0,-9.162332535E0,-6.105292439E-1,9.712541103E-1,9.233873401E0
1.234690791E0,-9.862211227E0,-6.446176767E-1,1.003211975E0,9.934041298E0
1.237199489E0,-1.055782795E1,-7.181208730E-1,1.028778315E0,1.063211237E1
1.239708187E0,-1.125024891E1,-8.416914344E-1,1.044757366E0,1.132996306E1
1.242216885E0,-1.194267082E1,-1.017459989E0,1.052214146E0,1.203203083E1
1.244725583E0,-1.263509178E1,-1.239034772E0,1.052214146E0,1.273922706E1
1.247234281E0,-1.332431793E1,-1.498959064E0,1.042626739E0,1.344884371E1
1.249742978E0,-1.401673889E1,-1.786580324E0,1.034104705E0,1.416792896E1
1.252251676E0,-1.471235657E1,-2.086984634E0,1.024517298E0,1.489491780E1
1.254760374E0,-1.539625549E1,-2.385258436E0,1.014929891E0,1.561295051E1
1.257269072E0,-1.606524086E1,-2.659031153E0,1.006407857E0,1.631487871E1
1.259777770E0,-1.670866013E1,-2.879540682E0,1.000016212E0,1.698443729E1
1.262286468E0,-1.731586075E1,-3.052113533E0,9.978857040E-1,1.761108192E1
1.264795166E0,-1.788684273E1,-3.188467264E0,9.989509583E-1,1.819624602E1
1.267303864E0,-1.841840744E1,-3.291797876E0,1.008538365E0,1.873741753E1
1.269812562E0,-1.890097237E1,-3.357844114E0,1.025582552E0,1.922429955E1
1.272321260E0,-1.932388306E1,-3.386606216E0,1.051148891E0,1.964653842E1
1.274829958E0,-1.966263580E1,-3.377018929E0,1.082041502E0,1.997984778E1
1.277338656E0,-1.987462425E1,-3.290732622E0,1.103346825E0,2.017540544E1
1.279847353E0,-1.986929703E1,-3.055309296E0,1.092694163E0,2.013250754E1
1.282356051E0,-1.952734756E1,-2.600441694E0,1.037300467E0,1.972702695E1
1.284864749E0,-1.880083847E1,-1.942108750E0,9.531446695E-1,1.892489890E1
1.287373447E0,-1.774729156E1,-1.255013704E0,8.285087943E-1,1.781089117E1
1.289882145E0,-1.644127846E1,-7.021418810E-1,6.474139690E-1,1.646899467E1
1.292390843E0,-1.495630169E1,-3.016027808E-1,4.141212404E-1,1.496507337E1
1.294899489E0,-1.323590088E1,7.656582445E-2,1.712411344E-1,1.323722999E1
1.297408135E0,-1.139192963E1,3.194459379E-1,-3.648528084E-2,1.139646601E1
1.299916781E0,-9.492564201E0,3.450122476E-1,-1.589905918E-1,9.500162450E0
1.302425426E0,-7.631548882E0,2.246374637E-1,-2.037316710E-1,7.637572056E0
1.304934072E0,-5.886646748E0,-3.209106624E-2,-1.888179779E-1,5.889761625E0
1.307442718E0,-4.313252449E0,-3.868238628E-1,-1.376853287E-1,4.332751625E0
1.309951364E0,-2.912430763E0,-7.543398142E-1,-6.631266326E-2,3.009265504E0
1.312460010E0,-1.661811233E0,-1.066462040E0,2.636527456E-2,1.974753904E0
1.314968656E0,-5.283707380E-1,-1.282710552E0,1.382179558E-1,1.394139950E0
1.317477301E0,5.209138989E-1,-1.394563317E0,2.628538013E-1,1.511704421E0
1.319985947E0,1.509478569E0,-1.413738012E0,3.853591084E-1,2.103730582E0
1.322494593E0,2.463954687E0,-1.365801096E0,4.950812757E-1,2.860348021E0
1.325003239E0,3.391799450E0,-1.275253773E0,5.888244510E-1,3.671142864E0
1.327511885E0,4.295143127E0,-1.151683211E0,6.538055539E-1,4.494673560E0
1.330020531E0,5.167593956E0,-1.007872581E0,6.900244951E-1,5.309987593E0
1.332529176E0,5.998499393E0,-8.480830193E-1,6.868287325E-1,6.096964285E0
1.335037822E0,6.777207375E0,-6.755102873E-1,6.495444775E-1,6.841692917E0
1.337546468E0,7.490933895E0,-4.880239069E-1,5.803023577E-1,7.529210369E0
1.340055114E0,8.135418892E0,-2.792322338E-1,4.833633900E-1,8.154547894E0
1.342563760E0,8.698943138E0,-5.552686751E-2,3.629885912E-1,8.706690282E0
1.345072406E0,9.182572365E0,1.777658761E-1,2.245043069E-1,9.187036417E0
1.347581051E0,9.595894814E0,4.163849354E-1,6.791055948E-2,9.605164524E0
1.350089697E0,9.943170547E0,6.507429481E-1,-9.827057272E-2,9.964926694E0
1.352598343E0,1.022333527E1,8.744482994E-1,-2.676474750E-1,1.026415505E1
1.355106989E0,1.043958378E1,1.083239913E0,-4.370244145E-1,1.050472791E1
1.357615635E0,1.059511185E1,1.274987459E0,-5.978792310E-1,1.068828553E1
1.360124281E0,1.068992043E1,1.446494818E0,-7.480813861E-1,1.081324982E1
1.362632926E0,1.072827053E1,1.598827600E0,-8.876309395E-1,1.088301093E1
1.365141572E0,1.072400951E1,1.741572857E0,-1.011201501E0,1.091146116E1
1.367650218E0,1.068992043E1,1.887513995E0,-1.114532113E0,1.091234574E1
1.370158864E0,1.063878822E1,2.049434185E0,-1.194426894E0,1.090002986E1
1.372667510E0,1.058552456E1,2.229463577E0,-1.250885844E0,1.088983716E1
1.375176156E0,1.054078388E1,2.422276258E0,-1.280713201E0,1.089108688E1
1.377684801E0,1.050669575E1,2.610827923E0,-1.288170099E0,1.090258961E1
1.380193447E0,1.048752022E1,2.782335520E0,-1.273256421E0,1.092477245E1
1.382702093E0,1.048325920E1,2.925080776E0,-1.244494200E0,1.095461486E1
1.385210739E0,1.049284649E1,3.041194439E0,-1.205079436E0,1.099094662E1
1.387719385E0,1.052693558E1,3.137068272E0,-1.159273148E0,1.104542820E1
1.390228031E0,1.058232880E1,3.221224070E0,-1.109205723E0,1.111720759E1
1.392736676E0,1.065583229E1,3.286205292E0,-1.053812027E0,1.120073332E1
1.395245322E0,1.074424934E1,3.322424173E0,-9.962878227E-1,1.129026066E1
1.397753968E0,1.083586216E1,3.319228411E0,-9.313067198E-1,1.137103857E1
1.400262614E0,1.091788673E1,3.279813528E0,-8.631298542E-1,1.143251594E1
1.402771260E0,1.098073769E1,3.199918747E0,-7.949529886E-1,1.146507873E1
1.405279906E0,1.102015209E1,3.073152542E0,-7.310371995E-1,1.146396241E1
1.407788551E0,1.102867413E1,2.894188166E0,-6.735129356E-1,1.142197872E1
1.410297249E0,1.100843430E1,2.666221619E0,-6.266413331E-1,1.134403115E1
1.412805947E0,1.096049786E1,2.379665852E0,-5.882918239E-1,1.123126930E1
1.415314645E0,1.089445114E1,2.004693031E0,-5.552686453E-1,1.109126607E1
1.417823343E0,1.081455612E1,1.517867565E0,-5.222455263E-1,1.093303647E1
1.420332041E0,1.072187901E1,9.149283171E-1,-4.966791868E-1,1.077230121E1
1.422840739E0,1.062387466E1,2.001364082E-1,-4.764391780E-1,1.063643558E1
1.425349437E0,1.052373981E1,-6.147902608E-1,-4.689823091E-1,1.055210932E1
1.427858135E0,1.040656090E1,-1.501089573E0,-4.764391780E-1,1.052505458E1
1.430366833E0,1.023185730E1,-2.426803827E0,-4.892223179E-1,1.052708977E1
1.432875531E0,9.928256989E0,-3.361039877E0,-4.977444410E-1,1.049355161E1
1.435384228E0,9.535175323E0,-4.187684536E0,-5.083971024E-1,1.042663598E1
1.437892926E0,9.180441856E0,-4.772514343E0,-5.350286365E-1,1.036067862E1
1.440401624E0,8.835296631E0,-5.148552418E0,-5.680518150E-1,1.024171575E1
1.442910322E0,8.463520050E0,-5.414868355E0,-5.946834087E-1,1.006506926E1
1.445419020E0,8.056589127E0,-5.643899918E0,-6.010749936E-1,9.855126878E0
1.447927718E0,7.615569592E0,-5.858017921E0,-5.787044764E-1,9.625392098E0
1.450436416E0,7.145788670E0,-6.064679146E0,-5.318328738E-1,9.387516980E0
1.452945114E0,6.647244930E0,-6.252165318E0,-4.700475931E-1,9.137635420E0
1.455453812E0,6.126331329E0,-6.405563354E0,-3.954791129E-1,8.872405602E0
1.457962510E0,5.580916405E0,-6.509959221E0,-3.028011918E-1,8.580086569E0
1.460471208E0,5.012065411E0,-6.555765629E0,-1.866874546E-1,8.254314924E0
1.462979906E0,4.422974586E0,-6.532330036E0,-4.820318148E-2,7.889002690E0
1.465488603E0,3.810447931E0,-6.427934170E0,1.158474237E-1,7.473370843E0
1.467997301E0,3.171289921E0,-6.244708538E0,3.054643571E-1,7.010475944E0
1.470505999E0,2.498043299E0,-5.984784126E0,5.238434076E-1,6.506325636E0
1.473014697E0,1.794969201E0,-5.651356697E0,7.688540220E-1,5.979204250E0
1.475523395E0,1.063133121E0,-5.254013538E0,1.036235213E0,5.459733850E0
1.478032093E0,3.057306707E-1,-4.800210953E0,1.334509015E0,4.991634076E0
1.480540791E0,-4.814991653E-1,-4.300602436E0,1.664740801E0,4.636635061E0
1.483049489E0,-1.286838531E0,-3.755187511E0,2.018408298E0,4.453241371E0
1.485558187E0,-2.099634647E0,-3.169292450E0,2.389120102E0,4.490075183E0
1.488066885E0,-2.912430763E0,-2.553570032E0,2.767288685E0,4.760342375E0
1.490575583E0,-3.722031116E0,-1.929325581E0,3.146522522E0,5.241795190E0
1.493084281E0,-4.532696724E0,-1.312537909E0,3.514038324E0,5.883584001E0
1.495592978E0,-5.344427586E0,-7.159903049E-1,3.859183788E0,6.630900983E0
1.498101676E0,-6.155093193E0,-1.503353268E-1,4.175567150E0,7.439296603E0
1.500610374E0,-6.964693546E0,3.822965026E-1,4.457861900E0,8.278021474E0
1.503119072E0,-7.774293900E0,8.829703927E-1,4.713525295E0,9.134363856E0
1.505627770E0,-8.580698967E0,1.352751613E0,4.938295841E0,9.992251873E0
1.508136468E0,-9.384972572E0,1.800162435E0,5.132174015E0,1.084700443E1
1.510645166E0,-1.018498611E1,2.234789848E0,5.288767815E0,1.169184728E1
1.513153864E0,-1.098712921E1,2.656634331E0,5.409142494E0,1.253130228E1
1.515662562E0,-1.179886055E1,3.064630270E0,5.489037037E0,1.336916589E1
1.518171260E0,-1.262763500E1,3.447059870E0,5.530582428E0,1.421009252E1
1.520679958E0,-1.347238922E1,3.792205334E0,5.532712936E0,1.504981744E1
1.523188656E0,-1.434803581E1,4.111784458E0,5.492232800E0,1.590400969E1
1.525697353E0,-1.524179173E1,4.429233074E0,5.405946732E0,1.676766474E1
1.528206051E0,-1.612915611E1,4.773313046E0,5.250418186E0,1.762104099E1
1.530714749E0,-1.701119423E1,5.090761662E0,5.028843403E0,1.845496815E1
1.533223447E0,-1.789536476E1,5.256942749E0,4.754005432E0,1.924785948E1
1.535732145E0,-1.877207565E1,5.146155357E0,4.432295799E0,1.996294030E1
1.538240843E0,-1.957315445E1,4.767986774E0,4.081823826E0,2.055488649E1
1.540749489E0,-2.025598907E1,4.177830696E0,3.722830057E0,2.101472880E1
1.543258135E0,-2.081099129E1,3.432146311E0,3.360640526E0,2.135815749E1
1.545766781E0,-2.122218132E1,2.594849110E0,2.989928722E0,2.158828144E1
1.548275426E0,-2.144375801E1,1.761812925E0,2.596846342E0,2.167215618E1
1.550784072E0,-2.139475441E1,1.088566303E0,2.175002098E0,2.153255969E1
1.553292718E0,-2.095693207E1,7.636608481E-1,1.738243937E0,2.104275817E1
1.555801364E0,-2.012069893E1,7.476819158E-1,1.311073184E0,2.017722643E1
1.558310010E0,-1.897341156E1,7.807050943E-1,9.041424990E-1,1.901097894E1
1.560818656E0,-1.760454750E1,6.326334476E-1,5.217128396E-1,1.762363476E1
1.563327301E0,-1.601623917E1,3.737743795E-1,1.723063886E-1,1.602152658E1
1.565835947E0,-1.423618317E1,5.632581562E-2,-1.249021590E-1,1.423684250E1
1.568344593E0,-1.236771107E1,-3.761712313E-1,-3.411506712E-1,1.237813256E1
1.570853239E0,-1.049391174E1,-9.205209613E-1,-4.572644234E-1,1.054412790E1
1.573361885E0,-8.661658287E0,-1.513872743E0,-4.753738940E-1,8.805800094E0
1.575870531E0,-6.919952393E0,-2.090180397E0,-4.178496599E-1,7.240800615E0
1.578379176E0,-5.299686432E0,-2.585527897E0,-3.113232851E-1,5.904960031E0
1.580887822E0,-3.811513424E0,-2.941326141E0,-1.760348231E-1,4.817678104E0
1.583396468E0,-2.457563162E0,-3.124551535E0,-2.796317078E-2,3.975326518E0
1.585905114E0,-1.234640598E0,-3.144791365E0,1.179779470E-1,3.380527907E0
1.588413760E0,-1.257011145E-1,-3.034003973E0,2.468748540E-1,3.046625686E0
1.590922406E0,8.884298801E-1,-2.828408241E0,3.502054214E-1,2.985271289E0
1.593431051E0,1.831188202E0,-2.547178507E0,4.173170328E-1,3.164730965E0
1.595939697E0,2.729205370E0,-2.205228806E0,4.428833723E-1,3.536628581E0
1.598448343E0,3.597395420E0,-1.818538189E0,4.258391261E-1,4.053353416E0
1.600956989E0,4.434692383E0,-1.391367435E0,3.661843836E-1,4.662240971E0
1.603465635E0,5.237901211E0,-9.428914785E-1,2.756369710E-1,5.329224069E0
1.605974281E0,6.001695156E0,-4.837628603E-1,1.573926955E-1,6.023217057E0
1.608482926E0,6.721813679E0,-3.102580272E-2,2.210422046E-2,6.721921625E0
1.610991572E0,7.393994808E0,4.025365114E-1,-1.280979514E-1,7.406051846E0
1.613500218E0,8.010782242E0,8.020103574E-1,-2.857569754E-1,8.055899068E0
1.616008864E0,8.562588692E0,1.155677915E0,-4.455465078E-1,8.651706666E0
1.618517510E0,9.049414635E0,1.461408615E0,-6.064013243E-1,9.186693798E0
1.621026156E0,9.479781151E0,1.721332908E0,-7.619298100E-1,9.664873237E0
1.623534801E0,9.849427223E0,1.939711928E0,-9.089362025E-1,1.007967579E1
1.626043447E0,1.016154957E1,2.117610931E0,-1.050616264E0,1.043288839E1
1.628552093E0,1.042573547E1,2.255029917E0,-1.180578470E0,1.073195628E1
1.631060739E0,1.064517975E1,2.367947817E0,-1.298822641E0,1.098243912E1
1.633569385E0,1.082840538E1,2.456364870E0,-1.401087999E0,1.119156553E1
1.636078031E0,1.097647667E1,2.534129143E0,-1.476721764E0,1.136158254E1
1.638586676E0,1.109472084E1,2.603371143E0,-1.533180714E0,1.149873971E1
1.641095322E0,1.117887688E1,2.655569077E0,-1.580052257E0,1.159809900E1
1.643603968E0,1.122361755E1,2.667287111E0,-1.619467020E0,1.164932122E1
1.646112614E0,1.124066162E1,2.647047043E0,-1.648229122E0,1.166516142E1
1.648621260E0,1.125131416E1,2.618284941E0,-1.661012292E0,1.167075183E1
1.651129906E0,1.126196766E1,2.592718601E0,-1.662077546E0,1.167547031E1
1.653638551E0,1.127155495E1,2.560760736E0,-1.654620767E0,1.167660980E1
1.656147249E0,1.128007698E1,2.518150091E0,-1.640772343E0,1.167361771E1
1.658655947E0,1.128753376E1,2.459560633E0,-1.620532274E0,1.166550392E1
1.661164645E0,1.129179478E1,2.382861614E0,-1.596031308E0,1.165032080E1
1.663673343E0,1.128966427E1,2.278465748E0,-1.567269087E0,1.162343572E1
1.666182041E0,1.128114223E1,2.141046762E0,-1.535311222E0,1.158470681E1
1.668690739E0,1.125450993E1,1.964213014E0,-1.498026967E0,1.152242211E1
1.671199437E0,1.120550823E1,1.747964501E0,-1.455416441E0,1.143402955E1
1.673708135E0,1.112987423E1,1.494431734E0,-1.412805915E0,1.131827934E1
1.676216833E0,1.101589108E1,1.199353695E0,-1.371260643E0,1.116551213E1
1.678725531E0,1.086781979E1,8.637956381E-1,-1.329715371E0,1.098288636E1
1.681234228E0,1.068992043E1,4.920186400E-1,-1.291365862E0,1.077887317E1
1.683742926E0,1.048325920E1,8.402267098E-2,-1.261538506E0,1.055922642E1
1.686251624E0,1.024996662E1,-3.601922691E-1,-1.241298437E0,1.033113624E1
1.688760322E0,9.987912178E0,-8.342345953E-1,-1.231711030E0,1.009809136E1
1.691269020E0,9.700290680E0,-1.327451706E0,-1.230645776E0,9.867738157E0
1.693777718E0,9.392429352E0,-1.827060342E0,-1.234906912E0,9.647842956E0
1.696286416E0,9.066458702E0,-2.317081690E0,-1.240233183E0,9.439688517E0
1.698795114E0,8.722378731E0,-2.783667088E0,-1.242363691E0,9.239705662E0
1.701303812E0,8.355928421E0,-3.216164112E0,-1.241298437E0,9.039141175E0
1.703812510E0,7.960715294E0,-3.613507509E0,-1.233841658E0,8.829087707E0
1.706321208E0,7.536740303E0,-3.972501278E0,-1.218927979E0,8.606335237E0
1.708829906E0,7.084003448E0,-4.296341419E0,-1.192296386E0,8.370377836E0
1.711338603E0,6.615287304E0,-4.579701424E0,-1.148620486E0,8.127423962E0
1.713847301E0,6.128461838E0,-4.811929226E0,-1.087900519E0,7.867416025E0
1.716355999E0,5.607547760E0,-4.990893364E0,-1.018658400E0,7.575702831E0
1.718864697E0,5.065328598E0,-5.104876518E0,-9.515467286E-1,7.254154620E0
1.721373395E0,4.502869606E0,-5.154943943E0,-8.791088462E-1,6.900877778E0
1.723882093E0,3.921235561E0,-5.140030384E0,-8.013445735E-1,6.514457291E0
1.726390791E0,3.315100431E0,-5.069722652E0,-7.118624449E-1,6.099075896E0
1.728899489E0,2.681268692E0,-4.951478481E0,-6.032055616E-1,5.663055527E0
1.731408187E0,2.024000883E0,-4.779971123E0,-4.764391780E-1,5.212647868E0
1.733916885E0,1.339036345E0,-4.553070068E0,-3.336938322E-1,4.757606221E0
1.736425583E0,6.231792569E-1,-4.264383316E0,-1.771000773E-1,4.313314490E0
1.738934281E0,-1.214400530E-1,-3.914977074E0,-2.396843163E-3,3.916860850E0
1.741442978E0,-8.948214650E-1,-3.502720118E0,1.914811432E-1,3.620278816E0
1.743951676E0,-1.692703962E0,-3.030808210E0,4.013380706E-1,3.494584004E0
1.746460374E0,-2.508695841E0,-2.499241590E0,6.282392144E-1,3.596449341E0
1.748969072E0,-3.340666771E0,-1.915477157E0,8.647277355E-1,3.946753257E0
1.751477770E0,-4.188616753E0,-1.295493722E0,1.102281570E0,4.520822817E0
1.753986468E0,-5.054676056E0,-6.542050242E-1,1.335574269E0,5.268917619E0
1.756495166E0,-5.933518410E0,-6.524739787E-3,1.561410189E0,6.135526470E0
1.759003864E0,-6.825144291E0,6.315681934E-1,1.776593447E0,7.080802020E0
1.761512562E0,-7.723161221E0,1.259008408E0,1.977928281E0,8.071215627E0
1.764021260E0,-8.620113373E0,1.881122470E0,2.165414572E0,9.084822319E0
1.766529958E0,-9.518130302E0,2.492583752E0,2.331595898E0,1.011158334E1
1.769038656E0,-1.040869141E1,3.088066101E0,2.475406408E0,1.113573733E1
1.771547353E0,-1.129925156E1,3.660112619E0,2.591520071E0,1.215670541E1
1.774056051E0,-1.219513798E1,4.207658291E0,2.674610615E0,1.317495049E1
1.776564749E0,-1.308889389E1,4.722180367E0,2.722547531E0,1.417851881E1
1.779073447E0,-1.398052025E1,5.203679562E0,2.730004311E0,1.516529429E1
1.781582145E0,-1.486894989E1,5.656416893E0,2.694850683E0,1.613514621E1
1.784090843E0,-1.574459648E1,6.067608356E0,2.614955902E0,1.707472354E1
1.786599541E0,-1.661172104E1,6.379730701E0,2.504168510E0,1.797000555E1
1.789108187E0,-1.747352028E1,6.500105381E0,2.366749525E0,1.879299828E1
1.791616833E0,-1.829270744E1,6.404232025E0,2.197372675E0,1.950553204E1
1.794125478E0,-1.904584885E1,6.131524563E0,1.981124043E0,2.010633741E1
1.796634124E0,-1.971376801E1,5.694766045E0,1.698829174E0,2.059002258E1
1.799142770E0,-2.027622795E1,5.130176544E0,1.351553202E0,2.095878879E1
1.801651416E0,-2.071724701E1,4.461191177E0,9.510141015E-1,2.121346219E1
1.804160062E0,-2.107837105E1,3.652655840E0,5.249086618E-1,2.139895207E1
1.806668708E0,-2.126692390E1,2.795118570E0,9.454214573E-2,2.145002747E1
1.809177353E0,-2.116359329E1,2.031324625E0,-3.198454082E-1,2.126326085E1
1.811685999E0,-2.067570114E1,1.484844327E0,-7.150582075E-1,2.074127982E1
1.814194645E0,-1.978727150E1,1.110936761E0,-1.065529943E0,1.984705641E1
1.816703291E0,-1.855795860E1,7.199850678E-1,-1.360607982E0,1.862169327E1
1.819211937E0,-1.705380630E1,1.415469050E-1,-1.589639664E0,1.712831864E1
1.821720583E0,-1.539305973E1,-7.468829751E-1,-1.737711310E0,1.550882854E1
1.824229228E0,-1.359063339E1,-1.747165561E0,-1.779256582E0,1.381751271E1
1.826737874E0,-1.171896553E1,-2.755970240E0,-1.729189157E0,1.216222102E1
1.829246520E0,-9.865406990E0,-3.726425409E0,-1.608814359E0,1.066774508E1
1.831755166E0,-8.065111160E0,-4.570114136E0,-1.436241746E0,9.380551775E0
1.834263812E0,-6.361754417E0,-5.197554588E0,-1.239167929E0,8.307949815E0
1.836772458E0,-4.779838085E0,-5.533112526E0,-1.041028857E0,7.385521473E0
1.839281103E0,-3.331079483E0,-5.562940121E0,-8.492814302E-1,6.539393875E0
1.841789749E0,-2.016544104E0,-5.336038589E0,-6.671213508E-1,5.743240274E0
1.844298395E0,-8.372972012E-1,-4.926977634E0,-4.870918095E-1,5.021298004E0
1.846807041E0,2.290316820E-1,-4.401802540E0,-3.038664460E-1,4.418218637E0
1.849315687E0,1.204813123E0,-3.792471647E0,-1.270326823E-1,3.981275318E0
1.851824333E0,2.117744207E0,-3.112833500E0,2.743053809E-2,3.765013328E0
1.854332978E0,2.993390799E0,-2.384193182E0,1.541969180E-1,3.829953301E0
1.856841624E0,3.843471289E0,-1.641704440E0,2.394180000E-1,4.186261577E0
1.859350270E0,4.670115948E0,-9.215862155E-1,2.873548567E-1,4.768844402E0
1.861858916E0,5.477585793E0,-2.515353858E-1,2.990727723E-1,5.491508052E0
1.864367562E0,6.269076347E0,3.514038324E-1,2.809632719E-1,6.285200336E0
1.866876208E0,7.039262295E0,8.744482994E-1,2.415485233E-1,7.097479776E0
1.869384853E0,7.778554916E0,1.300553799E0,1.829590350E-1,7.888652025E0
1.871893499E0,8.470976830E0,1.625459194E0,1.083905771E-1,8.626199311E0
1.874402145E0,9.105874062E0,1.855556130E0,1.890842989E-2,9.293029028E0
1.876910791E0,9.682181358E0,2.006823540E0,-8.442214131E-2,9.888331693E0
1.879419437E0,1.019137764E1,2.098436117E0,-1.994706094E-1,1.040708417E1
1.881928083E0,1.063559246E1,2.138916254E0,-3.209106624E-1,1.085328399E1
1.884436728E0,1.101056480E1,2.143177271E0,-4.412854612E-1,1.122588433E1
1.886945374E0,1.131523037E1,2.110154152E0,-5.595297217E-1,1.152389962E1
1.889454020E0,1.154958820E1,2.056890965E0,-6.724476814E-1,1.175057335E1
1.891962666E0,1.172003078E1,2.004693031E0,-7.779088020E-1,1.191566439E1
1.894471312E0,1.182868767E1,1.947168827E0,-8.695214391E-1,1.201937544E1
1.896979958E0,1.188088512E1,1.889644504E0,-9.494162202E-1,1.206762524E1
1.899488603E0,1.190005970E1,1.848099232E0,-1.018658400E0,1.208571705E1
1.901997301E0,1.190645218E1,1.827859282E0,-1.074052095E0,1.209372817E1
1.904505999E0,1.191603947E1,1.823598146E0,-1.109205723E0,1.210569470E1
1.907014697E0,1.193521404E1,1.823598146E0,-1.121988893E0,1.212574548E1
1.909523395E0,1.196504116E1,1.816141367E0,-1.115597367E0,1.215340022E1
1.912032093E0,1.200125980E1,1.793770790E0,-1.092161536E0,1.218362292E1
1.914540791E0,1.204706669E1,1.746899247E0,-1.059138417E0,1.221905262E1
1.917049489E0,1.209287262E1,1.674461246E0,-1.022919416E0,1.225103068E1
1.919558187E0,1.213441849E1,1.572196007E0,-9.898962379E-1,1.227582204E1
1.922066885E0,1.216744137E1,1.431581140E0,-9.558078051E-1,1.228859726E1
1.924575583E0,1.218874645E1,1.246225357E0,-9.249151349E-1,1.228715125E1
1.927084281E0,1.219407272E1,1.017193675E0,-8.982835412E-1,1.226935230E1
1.929592978E0,1.218448544E1,7.423555851E-1,-8.737825155E-1,1.223831169E1
1.932101676E0,1.215891933E1,4.153196514E-1,-8.546077609E-1,1.219598968E1
1.934610374E0,1.210991669E1,2.969422378E-2,-8.460856676E-1,1.213947383E1
1.937119072E0,1.203108788E1,-4.187817574E-1,-8.524772525E-1,1.206851984E1
1.939627770E0,1.192136574E1,-9.322388172E-1,-8.780435324E-1,1.198995374E1
1.942136468E0,1.177968502E1,-1.491502285E0,-9.259804487E-1,1.190978581E1
1.944645166E0,1.159965611E1,-2.084854126E0,-9.941573143E-1,1.182738294E1
1.947153864E0,1.137701607E1,-2.706968069E0,-1.076182604E0,1.174403422E1
1.949662562E0,1.110963440E1,-3.341865301E0,-1.163534164E0,1.165958198E1
1.952171260E0,1.079431629E1,-3.966109753E0,-1.249820590E0,1.156759881E1
1.954679958E0,1.042999649E1,-4.553070068E0,-1.327584863E0,1.145765052E1
1.957188656E0,1.001667404E1,-5.080375671E0,-1.391500592E0,1.131725451E1
1.959697353E0,9.552219391E0,-5.527786255E0,-1.445829034E0,1.113066655E1
1.962206051E0,9.038762093E0,-5.885715008E0,-1.484178543E0,1.088777513E1
1.964714749E0,8.475237846E0,-6.159487724E0,-1.505483866E0,1.058467889E1
1.967223447E0,7.857384682E0,-6.344843388E0,-1.509744883E0,1.021150632E1
1.969732145E0,7.184137821E0,-6.436456203E0,-1.498026967E0,9.761346705E0
1.972240843E0,6.465085030E0,-6.428999424E0,-1.469264865E0,9.235155509E0
1.974749541E0,5.701291084E0,-6.319277287E0,-1.421328068E0,8.628914122E0
1.977258239E0,4.888494968E0,-6.108355045E0,-1.353151083E0,7.939798629E0
1.979766937E0,4.034153461E0,-5.809015751E0,-1.260473251E0,7.183860450E0
1.982275635E0,3.134005547E0,-5.428716660E0,-1.140098453E0,6.371246332E0
1.984784333E0,2.192312479E0,-4.971718788E0,-9.920267463E-1,5.523435415E0
1.987293031E0,1.212270021E0,-4.436956406E0,-8.183888197E-1,4.671824163E0
1.989801728E0,1.960085034E-1,-3.835082293E0,-6.223802567E-1,3.890197001E0
1.992310426E0,-8.532761931E-1,-3.171422958E0,-4.050664902E-1,3.309090918E0
1.994819124E0,-1.933453560E0,-2.460892200E0,-1.707084924E-1,3.134226297E0
1.997327822E0,-3.047719240E0,-1.715207577E0,7.643266767E-2,3.498052537E0
1.999836520E0,-4.192877769E0,-9.492830634E-1,3.310306668E-1,4.311721655E0
2.002345218E0,-5.363602638E0,-1.705753356E-1,5.824328661E-1,5.397828939E0
2.004853916E0,-6.555632591E0,6.123934388E-1,8.306393027E-1,6.636362411E0
2.007362614E0,-7.759380341E0,1.401753783E0,1.068193078E0,7.957005303E0
2.009871312E0,-8.966323853E0,2.196440458E0,1.298290014E0,9.322278213E0
2.012380010E0,-1.015941906E1,2.999649286E0,1.524125934E0,1.070208631E1
2.014888708E0,-1.132694817E1,3.815641165E0,1.746766090E0,1.207932382E1
2.017397406E0,-1.247423744E1,4.627372265E0,1.959818840E0,1.344842235E1
2.019906103E0,-1.360874271E1,5.406079769E0,2.149435759E0,1.480012334E1
2.022414801E0,-1.472727013E1,6.144307613E0,2.302833557E0,1.612290432E1
2.024923499E0,-1.582342625E1,6.835663795E0,2.400837898E0,1.740319339E1
2.027432197E0,-1.689934158E1,7.478017807E0,2.438122272E0,1.864008950E1
2.029940895E0,-1.794436646E1,8.063912392E0,2.406164169E0,1.981960132E1
2.032449541E0,-1.897021484E1,8.553934097E0,2.302833557E0,2.093661582E1
2.034958187E0,-1.998754120E1,8.846880913E0,2.123869419E0,2.196087262E1
2.037466833E0,-2.098356247E1,8.857534409E0,1.878858805E0,2.285379444E1
2.039975478E0,-2.190288544E1,8.645546913E0,1.566736460E0,2.359950286E1
2.042484124E0,-2.270289803E1,8.230093956E0,1.194959521E0,2.417817101E1
2.044992770E0,-2.336123085E1,7.629284859E0,7.624624372E-1,2.458728214E1
2.047501416E0,-2.387681961E1,6.868686676E0,2.628538013E-1,2.484653826E1
2.050010062E0,-2.422516060E1,5.997301102E0,-2.921485603E-1,2.495819259E1
2.052518708E0,-2.436790657E1,5.046020508E0,-8.748477697E-1,2.490025205E1
2.055027353E0,-2.415165710E1,4.154395103E0,-1.462873340E0,2.454998041E1
2.057535999E0,-2.345816994E1,3.419363022E0,-2.011484146E0,2.379125572E1
2.060044645E0,-2.228105354E1,2.807901859E0,-2.469547510E0,2.259266086E1
2.062553291E0,-2.067996216E1,2.165547848E0,-2.815758228E0,2.098282457E1
2.065061937E0,-1.875077057E1,1.328250647E0,-3.040528774E0,1.904207084E1
2.067570583E0,-1.662983131E1,1.724395454E-1,-3.119358301E0,1.692073938E1
2.070079228E0,-1.435336208E1,-1.131443143E0,-3.032006741E0,1.471367498E1
2.072587874E0,-1.202576160E1,-2.499241590E0,-2.797648668E0,1.259730085E1
2.075096520E0,-9.755684853E0,-3.888345480E0,-2.457829475E0,1.078580286E1
2.077605166E0,-7.600656033E0,-5.173053265E0,-2.060486317E0,9.422104652E0
2.080113812E0,-5.604351997E0,-6.251100063E0,-1.641837597E0,8.554568604E0
2.082622458E0,-3.793403864E0,-7.039395332E0,-1.225319505E0,8.089771777E0
2.085131103E0,-2.183790445E0,-7.481479645E0,-8.354330063E-1,7.838330606E0
2.087639749E0,-7.755119205E-1,-7.569896698E0,-4.828307331E-1,7.624820016E0
2.090148395E0,4.474107325E-1,-7.332342625E0,-1.760348231E-1,7.348089070E0
2.092657041E0,1.510543823E0,-6.825277328E0,8.282424510E-2,6.990923623E0
2.095165687E0,2.450106382E0,-6.111550808E0,3.001380265E-1,6.591218203E0
2.097674333E0,3.304447889E0,-5.248687267E0,4.822981060E-1,6.220989097E0
2.100182978E0,4.114048004E0,-4.293145657E0,6.282392144E-1,5.979228639E0
2.102691624E0,4.897017002E0,-3.307776690E0,7.454182506E-1,5.956325253E0
2.105200270E0,5.661876202E0,-2.344778538E0,8.359656334E-1,6.184954895E0
2.107708916E0,6.417148113E0,-1.442500114E0,8.988161683E-1,6.638408468E0
2.110217562E0,7.162832737E0,-6.275734305E-1,9.329046607E-1,7.250540141E0
2.112726208E0,7.887211800E0,7.763108611E-2,9.392961860E-1,7.943325115E0
2.115234853E0,8.576437950E0,6.603302956E-1,9.126646519E-1,8.650102935E0
2.117743499E0,9.210268974E0,1.110936761E0,8.508793116E-1,9.315966438E0
2.120252145E0,9.786577225E0,1.439038038E0,7.603319287E-1,9.920989310E0
2.122760791E0,1.029790401E1,1.671265483E0,6.442182064E-1,1.045251034E1
2.125269437E0,1.073892307E1,1.827859282E0,5.099949837E-1,1.090530299E1
2.127778083E0,1.111283016E1,1.925863504E0,3.661843836E-1,1.128441560E1
2.130286728E0,1.141749573E1,1.975930929E0,2.234390527E-1,1.158936740E1
2.132795374E0,1.164865780E1,1.983387709E0,8.921582997E-2,1.181664143E1
2.135304020E0,1.180844784E1,1.950364590E0,-3.542001545E-2,1.196848432E1
2.137812666E0,1.189899445E1,1.877926588E0,-1.494032294E-1,1.204719878E1
2.140321312E0,1.192775726E1,1.776726604E0,-2.537990510E-1,1.206202988E1
2.142829958E0,1.191071320E1,1.658482313E0,-3.464770019E-1,1.203061506E1
2.145338656E0,1.187449360E1,1.545564413E0,-4.253064990E-1,1.198220569E1
2.147847353E0,1.183720970E1,1.452886462E0,-4.849612713E-1,1.193589544E1
2.150356051E0,1.181057835E1,1.367665410E0,-5.179844499E-1,1.190078054E1
2.152864749E0,1.179672909E1,1.267530560E0,-5.275717974E-1,1.187635394E1
2.155373447E0,1.179353333E1,1.146090508E0,-5.179844499E-1,1.186040723E1
2.157882145E0,1.180099106E1,1.002279878E0,-4.988096952E-1,1.185397680E1
2.160390843E0,1.181696987E1,8.478167057E-1,-4.732433856E-1,1.185679254E1
2.162899541E0,1.184360123E1,6.933534741E-1,-4.519380927E-1,1.187248403E1
2.165408239E0,1.187875462E1,5.463470817E-1,-4.306328297E-1,1.189910715E1
2.167916937E0,1.192349625E1,4.036017656E-1,-4.125233591E-1,1.193745503E1
2.170425635E0,1.197249794E1,2.608564198E-1,-3.954791129E-1,1.198186783E1
2.172934333E0,1.201510906E1,1.085237339E-1,-3.763043880E-1,1.202149026E1
2.175443031E0,1.204706669E1,-5.126581341E-2,-3.581948876E-1,1.205249964E1
2.177951728E0,1.206624126E1,-2.217079997E-1,-3.432812095E-1,1.207315927E1
2.180460426E0,1.206411076E1,-4.049333334E-1,-3.304980397E-1,1.207542829E1
2.182969124E0,1.203534889E1,-6.062681675E-1,-3.219759464E-1,1.205490989E1
2.185477822E0,1.197675896E1,-8.363651037E-1,-3.241064548E-1,1.201030003E1
2.187986520E0,1.188408089E1,-1.100550532E0,-3.358243704E-1,1.193965527E1
2.190495218E0,1.175944519E1,-1.396693826E0,-3.560643792E-1,1.184745064E1
2.193003916E0,1.159006882E1,-1.722664475E0,-3.816306889E-1,1.172360482E1
2.195512614E0,1.137168980E1,-2.080593109E0,-4.125233591E-1,1.156781622E1
2.198021312E0,1.110856915E1,-2.461957455E0,-4.476770461E-1,1.138692047E1
2.200530010E0,1.080283833E1,-2.850778580E0,-4.849612713E-1,1.118317673E1
2.203038708E0,1.044491005E1,-3.248121977E0,-5.254412889E-1,1.095091461E1
2.205547406E0,1.002839184E1,-3.642269611E0,-5.755086541E-1,1.068484820E1
2.208056103E0,9.552219391E0,-3.992741346E0,-6.458160877E-1,1.037323273E1
2.210564801E0,9.021718025E0,-4.286754131E0,-7.171887755E-1,1.001409091E1
2.213073499E0,8.443279266E0,-4.530699253E0,-7.779088020E-1,9.613601957E0
2.215582197E0,7.812643528E0,-4.723512173E0,-8.151929975E-1,9.165888160E0
2.218090895E0,7.138331890E0,-4.847082615E0,-8.247803450E-1,8.667771032E0
2.220599593E0,6.425670147E0,-4.885432243E0,-8.066709042E-1,8.112176218E0
2.223108291E0,5.687442780E0,-4.816190243E0,-7.566034794E-1,7.491004115E0
2.225616989E0,4.954541206E0,-4.608463764E0,-6.671213508E-1,6.799299062E0
2.228125687E0,4.184355736E0,-4.310189724E0,-5.552686453E-1,6.032817886E0
2.230634385E0,3.373689890E0,-3.952261209E0,-4.316980839E-1,5.214260770E0
2.233143083E0,2.527870655E0,-3.559179068E0,-2.985401452E-1,4.375729871E0
2.235651781E0,1.650093436E0,-3.146921873E0,-1.536642760E-1,3.556618947E0
2.238160478E0,7.499455810E-1,-2.714424849E0,9.321057238E-3,2.816133433E0
2.240669176E0,-1.672463864E-1,-2.259557247E0,1.893506050E-1,2.273636725E0
2.243177874E0,-1.098286867E0,-1.783384442E0,3.832286000E-1,2.129215412E0
2.245686572E0,-2.042110443E0,-1.288036942E0,5.909550190E-1,2.485655258E0
2.248195270E0,-2.986999273E0,-7.862977386E-1,8.082687855E-1,3.192761692E0
2.250703968E0,-3.930822849E0,-2.792322338E-1,1.038365722E0,4.075235243E0
2.253212666E0,-4.874646187E0,2.267680019E-1,1.271658421E0,5.042887497E0
2.255721364E0,-5.807817459E0,7.327682376E-1,1.504951239E0,6.044217994E0
2.258230062E0,-6.732466221E0,1.237703204E0,1.730787158E0,7.060710646E0
2.260738760E0,-7.644331932E0,1.743703365E0,1.943839788E0,8.078045880E0
2.263247458E0,-8.539153099E0,2.253964663E0,2.133456707E0,9.085655170E0
2.265756156E0,-9.416930199E0,2.770617485E0,2.297507286E0,1.008134095E1
2.268264853E0,-1.027446747E1,3.285139799E0,2.431730509E0,1.105758285E1
2.270773551E0,-1.111283016E1,3.789009571E0,2.535061121E0,1.201158285E1
2.273282249E0,-1.193947506E1,4.272639275E0,2.609629631E0,1.294668598E1
2.275790947E0,-1.275120544E1,4.727507114E0,2.653305531E0,1.385577836E1
2.278299593E0,-1.354163170E1,5.138698578E0,2.661827564E0,1.472641634E1
2.280808239E0,-1.432140446E1,5.490235806E0,2.637326479E0,1.556280199E1
2.283316885E0,-1.508093739E1,5.758682251E0,2.577671766E0,1.634752230E1
2.285825531E0,-1.581383896E1,5.932320118E0,2.478602171E0,1.707083458E1
2.288334176E0,-1.651584816E1,6.001562119E0,2.331595898E0,1.772648662E1
2.290842822E0,-1.718057251E1,5.958951473E0,2.135587215E0,1.830961243E1
2.293351468E0,-1.779416466E1,5.810880184E0,1.894837737E0,1.881459631E1
2.295860114E0,-1.834490585E1,5.560543060E0,1.606151223E0,1.923629205E1
2.298368760E0,-1.882746887E1,5.213267326E0,1.269527912E0,1.957711525E1
2.300877406E0,-1.923546600E1,4.776508808E0,8.924246430E-1,1.983972305E1
2.303386051E0,-1.954758835E1,4.257725716E0,4.886896908E-1,2.001187788E1
2.305894697E0,-1.974146652E1,3.659047365E0,7.430213690E-2,2.007783975E1
2.308403343E0,-1.976703262E1,3.008171320E0,-3.379548788E-1,1.999747201E1
2.310911989E0,-1.956143570E1,2.334924698E0,-7.427550554E-1,1.971429241E1
2.313420635E0,-1.909698105E1,1.629720211E0,-1.116662621E0,1.919889602E1
2.315929281E0,-1.834810066E1,9.394294024E-1,-1.423458576E0,1.842719620E1
2.318437926E0,-1.730094719E1,2.896185517E-1,-1.647163868E0,1.738159375E1
2.320946572E0,-1.603115273E1,-4.358259737E-1,-1.790974498E0,1.613677141E1
2.323455218E0,-1.458345890E1,-1.302950621E0,-1.843172431E0,1.475710806E1
2.325963864E0,-1.302178288E1,-2.338386774E0,-1.806953430E0,1.335290091E1
2.328472510E0,-1.140471268E1,-3.499524117E0,-1.688709140E0,1.204848035E1
2.330981156E0,-9.821730614E0,-4.718185902E0,-1.495896459E0,1.099842610E1
2.333489801E0,-8.243010521E0,-5.746165276E0,-1.241298437E0,1.012454738E1
2.335998447E0,-6.737792492E0,-6.545113087E0,-9.515467286E-1,9.441493217E0
2.338507093E0,-5.347623348E0,-7.095854282E0,-6.585992575E-1,8.909656360E0
2.341015739E0,-4.082090378E0,-7.371757507E0,-3.858917654E-1,8.435353167E0
2.343524385E0,-2.950780392E0,-7.369626999E0,-1.568600684E-1,7.939969276E0
2.346033031E0,-1.940910339E0,-7.128877640E0,1.997369342E-2,7.388398223E0
2.348541676E0,-1.041827798E0,-6.679336071E0,1.520663798E-1,6.761808907E0
2.351050322E0,-2.237053663E-1,-6.061483383E0,2.458095849E-1,6.070588707E0
2.353558968E0,5.475454926E-1,-5.314733505E0,3.033338189E-1,5.351467995E0
2.356067614E0,1.294295311E0,-4.478501320E0,3.320959508E-1,4.673591996E0
2.358576260E0,2.041045189E0,-3.608181000E0,3.395527899E-1,4.159342699E0
2.361084906E0,2.797382355E0,-2.750643969E0,3.246390820E-1,3.936595079E0
2.363593551E0,3.563306808E0,-1.941043496E0,2.937464416E-1,4.068303361E0
2.366102197E0,4.339884281E0,-1.196424246E0,2.532664239E-1,4.508899027E0
2.368610843E0,5.121787548E0,-5.316997170E-1,2.074600905E-1,5.153489300E0
2.371119489E0,5.894103527E0,3.715106845E-2,1.541969180E-1,5.896237214E0
2.373628135E0,6.647244930E0,4.973449707E-1,9.667267650E-2,6.666525541E0
2.376136781E0,7.364167690E0,8.382292986E-1,3.169159219E-2,7.411787806E0
2.378645426E0,8.031023026E0,1.060869455E0,-4.074633494E-2,8.100891007E0
2.381154072E0,8.639287949E0,1.170591593E0,-1.227716357E-1,8.719097075E0
2.383662718E0,9.175115585E0,1.179113746E0,-2.154495716E-1,9.253079150E0
2.386171364E0,9.653419495E0,1.108806252E0,-3.113232851E-1,9.721876436E0
2.388680010E0,1.006674099E1,9.788441062E-1,-4.135886133E-1,1.012267087E1
2.391188708E0,1.042147446E1,8.115977645E-1,-5.201149583E-1,1.046596103E1
2.393697406E0,1.071974754E1,6.219807863E-1,-6.234455705E-1,1.075586035E1
2.396206103E0,1.095836735E1,4.259723127E-1,-7.203845382E-1,1.099027849E1
2.398714801E0,1.114265728E1,2.384859025E-1,-8.109319210E-1,1.117467214E1
2.401223499E0,1.127048969E1,6.697845459E-2,-8.897614479E-1,1.130575515E1
2.403732197E0,1.134399223E1,-8.002793044E-2,-9.568730593E-1,1.138455842E1
2.406240895E0,1.137168980E1,-1.918806136E-1,-1.013332009E0,1.141836191E1
2.408749593E0,1.136316681E1,-2.536658943E-1,-1.058073163E0,1.141514017E1
2.411258291E0,1.132694817E1,-2.685796022E-1,-1.086835265E0,1.138213955E1
2.413766989E0,1.126835918E1,-2.376869470E-1,-1.104944706E0,1.132489808E1
2.416275687E0,1.119592094E1,-1.673795432E-1,-1.116662621E0,1.125271510E1
2.418784385E0,1.111283016E1,-6.511423737E-2,-1.123054147E0,1.116962330E1
2.421293083E0,1.102334785E1,5.952160433E-2,-1.125184774E0,1.108078434E1
2.423801781E0,1.093706226E1,2.075932473E-1,-1.119858384E0,1.099620429E1
2.426310478E0,1.085823250E1,3.844270110E-1,-1.107075214E0,1.092129171E1
2.428819176E0,1.080070782E1,5.868270993E-1,-1.083639383E0,1.087078331E1
2.431327874E0,1.076448917E1,8.062714338E-1,-1.052746773E0,1.084585527E1
2.433836572E0,1.075490189E1,1.029976726E0,-1.010136247E0,1.085122767E1
2.436345270E0,1.076768494E1,1.241964221E0,-9.590035677E-1,1.088141543E1
2.438853968E0,1.079644680E1,1.428385377E0,-9.025446177E-1,1.092786050E1
2.441362666E0,1.083905792E1,1.586044431E0,-8.450203538E-1,1.098702749E1
2.443871364E0,1.089125538E1,1.709614992E0,-7.864308953E-1,1.105263320E1
2.446380062E0,1.095197582E1,1.792705536E0,-7.310371995E-1,1.112177967E1
2.448888760E0,1.101695633E1,1.832120299E0,-6.809697747E-1,1.118899957E1
2.451397458E0,1.108300304E1,1.828924537E0,-6.362286806E-1,1.125089811E1
2.453906156E0,1.114372253E1,1.779922366E0,-6.000097394E-1,1.130091533E1
2.456414853E0,1.119485569E1,1.675526500E0,-5.669865608E-1,1.133373975E1
2.458923551E0,1.122681332E1,1.504019141E0,-5.392897129E-1,1.133994022E1
2.461432249E0,1.122787857E1,1.254747391E0,-5.233107805E-1,1.130988516E1
2.463940947E0,1.119485569E1,9.351683259E-1,-5.286371112E-1,1.124627898E1
2.466449645E0,1.113200474E1,5.601955056E-1,-5.531381369E-1,1.115980781E1
2.468958343E0,1.103293514E1,1.447426975E-1,-5.989444852E-1,1.105012863E1
2.471467041E0,1.089445114E1,-3.101248741E-1,-6.628602743E-1,1.091900302E1
2.473975739E0,1.071016026E1,-8.022766709E-1,-7.374287844E-1,1.076545316E1
2.476484437E0,1.047793293E1,-1.328516960E0,-8.173235059E-1,1.059339669E1
2.478993135E0,1.019776917E1,-1.872866631E0,-9.036098719E-1,1.040762394E1
2.481501833E0,9.862211227E0,-2.425738573E0,-9.930920005E-1,1.020458964E1
2.484010531E0,9.481911659E0,-2.974349260E0,-1.092161536E0,9.997310591E0
2.486519228E0,9.068589211E0,-3.469696760E0,-1.216797352E0,9.785637520E0
2.489027926E0,8.609460831E0,-3.905389547E0,-1.345694304E0,9.549124382E0
2.491536624E0,8.123700142E0,-4.294210911E0,-1.468199611E0,9.305394212E0
2.494045322E0,7.601721287E0,-4.645747662E0,-1.574725986E0,9.047038178E0
2.496554020E0,7.047784328E0,-4.952543736E0,-1.663142800E0,8.772969701E0
2.499062718E0,6.473607063E0,-5.209272385E0,-1.725993395E0,8.486646003E0
2.501571416E0,5.881320477E0,-5.402085304E0,-1.763277650E0,8.178117403E0
2.504080114E0,5.270924568E0,-5.524590492E0,-1.778191328E0,7.840007035E0
2.506588812E0,4.644549370E0,-5.571462154E0,-1.768603921E0,7.465988830E0
2.509097510E0,4.007521629E0,-5.542699814E0,-1.735580802E0,7.056485779E0
2.511606208E0,3.356645823E0,-5.441499710E0,-1.676991343E0,6.609787458E0
2.514114906E0,2.691921234E0,-5.265731335E0,-1.597096562E0,6.125772102E0
2.516623603E0,2.016544104E0,-5.017524719E0,-1.491635442E0,5.609543718E0
2.519132301E0,1.331579566E0,-4.699010849E0,-1.363803744E0,5.070874456E0
2.521640999E0,6.338318586E-1,-4.321907520E0,-1.214666843E0,4.533877257E0
2.524149697E0,-7.030740380E-2,-3.890475988E0,-1.045289993E0,4.029066606E0
2.526658343E0,-7.808382511E-1,-3.408976793E0,-8.609993458E-1,3.601687247E0
2.529166989E0,-1.495630145E0,-2.884867191E0,-6.671213508E-1,3.317290934E0
2.531675635E0,-2.216813564E0,-2.329864740E0,-4.689823091E-1,3.249996384E0
2.534184281E0,-2.941192865E0,-1.753557086E0,-2.655169666E-1,3.434541772E0
2.536692926E0,-3.674094200E0,-1.166596889E0,-6.631266326E-2,3.855426548E0
2.539201572E0,-4.413387299E0,-5.753754973E-1,1.318263710E-1,4.452687122E0
2.541710218E0,-5.159071922E0,1.265000552E-2,3.235738277E-1,5.169224617E0
2.544218864E0,-5.907952309E0,5.932186842E-1,5.099949837E-1,5.959522109E0
2.546727510E0,-6.663224220E0,1.158873677E0,6.900244951E-1,6.798358553E0
2.549236156E0,-7.424887657E0,1.703223348E0,8.636624813E-1,7.666540248E0
2.551744801E0,-8.187616348E0,2.226267815E0,1.033039451E0,8.547543528E0
2.554253447E0,-8.950345039E0,2.721615553E0,1.199220538E0,9.431542686E0
2.556762093E0,-9.708812714E0,3.186070442E0,1.363271117E0,1.030876313E1
2.559270739E0,-1.046301937E1,3.608979940E0,1.525191188E0,1.117254307E1
2.561779385E0,-1.122255230E1,3.980756998E0,1.695633411E0,1.202777116E1
2.564288031E0,-1.199486828E1,4.297140598E0,1.878858805E0,1.287914565E1
2.566796676E0,-1.277464199E1,4.558129787E0,2.075932503E0,1.372142561E1
2.569305322E0,-1.355121899E1,4.779704571E0,2.293246269E0,1.455129170E1
2.571813968E0,-1.432566547E1,4.974647999E0,2.522278070E0,1.537314869E1
2.574322614E0,-1.509372044E1,5.137633324E0,2.754505396E0,1.618032672E1
2.576831260E0,-1.585431862E1,5.256942749E0,2.977145672E0,1.696638625E1
2.579339906E0,-1.660852623E1,5.310205936E0,3.176349878E0,1.772373068E1
2.581848551E0,-1.735847092E1,5.272922039E0,3.338269949E0,1.844625343E1
2.584357197E0,-1.809989548E1,5.130176544E0,3.451187849E0,1.912682998E1
2.586865843E0,-1.883705711E1,4.876643658E0,3.495929003E0,1.976962047E1
2.589374489E0,-1.956250191E1,4.512323856E0,3.465036392E0,2.037299744E1
2.591883135E0,-2.026025009E1,4.069173813E0,3.352118254E0,2.093496133E1
2.594391781E0,-2.095799637E1,3.547194719E0,3.152914047E0,2.148862651E1
2.596900426E0,-2.162378693E1,3.015628099E0,2.865292788E0,2.202026514E1
2.599409072E0,-2.220329094E1,2.543716431E0,2.483928442E0,2.248614067E1
2.601917718E0,-2.265176582E1,2.168743610E0,2.009886265E0,2.284393982E1
2.604426364E0,-2.287547112E1,1.942907691E0,1.441035390E0,2.300301398E1
2.606935010E0,-2.278066254E1,1.880057216E0,8.135951161E-1,2.287258485E1
2.609443656E0,-2.232366562E1,1.896036148E0,1.723063886E-1,2.240470239E1
2.611952301E0,-2.151406479E1,1.812945604E0,-4.444812536E-1,2.159489104E1
2.614460947E0,-2.039447212E1,1.497627497E0,-9.952225685E-1,2.047358907E1
2.616969593E0,-1.904478264E1,8.851009011E-1,-1.442633271E0,1.911984153E1
2.619478239E0,-1.753317451E1,6.378266215E-2,-1.756886005E0,1.762109319E1
2.621986885E0,-1.583727455E1,-7.287734747E-1,-1.933719873E0,1.597152618E1
2.624495531E0,-1.405508804E1,-1.419064283E0,-1.982721925E0,1.426500717E1
2.627004176E0,-1.223348808E1,-1.912281394E0,-1.926262975E0,1.253098320E1
2.629512822E0,-1.042680073E1,-2.196706772E0,-1.788843989E0,1.080479786E1
2.632021468E0,-8.696812630E0,-2.311755180E0,-1.603488088E0,9.140565408E0
2.634530114E0,-7.085068703E0,-2.300037384E0,-1.389370084E0,7.577514086E0
2.637038760E0,-5.615004539E0,-2.184988976E0,-1.156077385E0,6.135060531E0
2.639547458E0,-4.288751602E0,-1.981523514E0,-9.163930416E-1,4.812442410E0
2.642056156E0,-3.102047682E0,-1.688575983E0,-6.788392663E-1,3.596499885E0
2.644564853E0,-2.024000883E0,-1.314668536E0,-4.530033767E-1,2.455635354E0
2.647073551E0,-1.037566781E0,-8.768451214E-1,-2.474074811E-1,1.380801453E0
2.649582249E0,-1.075916290E-1,-4.006722867E-1,-6.205160543E-2,4.194813962E-1
2.652090947E0,7.893603444E-1,8.721846342E-2,9.986846894E-2,8.004189683E-1
2.654599645E0,1.669268131E0,5.516734123E-1,2.394180000E-1,1.774294402E0
2.657108343E0,2.544914722E0,9.617999196E-1,3.565970063E-1,2.743867973E0
2.659617041E0,3.420561552E0,1.304814816E0,4.503402114E-1,3.688575516E0
2.662125739E0,4.299404144E0,1.590305448E0,5.249086618E-1,4.614052071E0
2.664634437E0,5.176115990E0,1.827859282E0,5.771065950E-1,5.519628458E0
2.667143135E0,6.045371056E0,2.007888794E0,6.154560447E-1,6.399758960E0
2.669651833E0,6.890125275E0,2.121871948E0,6.388918757E-1,7.237703344E0
2.672160531E0,7.698660374E0,2.167678356E0,6.484792233E-1,8.024258614E0
2.674669228E0,8.459259033E0,2.157025814E0,6.463487148E-1,8.753832898E0
2.677177926E0,9.151679993E0,2.095240355E0,6.325002909E-1,9.409746832E0
2.679686624E0,9.774859428E0,1.988714099E0,6.090644598E-1,9.993689015E0
2.682195322E0,1.031920910E1,1.831055045E0,5.760413408E-1,1.049622135E1
2.684704020E0,1.079112053E1,1.655286551E0,5.313002467E-1,1.093025781E1
2.687212718E0,1.118952942E1,1.492301226E0,4.801675975E-1,1.129880934E1
2.689721416E0,1.152082634E1,1.352751613E0,4.226433635E-1,1.160767005E1
2.692230114E0,1.178607655E1,1.234507442E0,3.565970063E-1,1.185591710E1
2.694738812E0,1.198208523E1,1.137568355E0,2.809632719E-1,1.203924286E1
2.697247510E0,1.211098194E1,1.043825269E0,1.968074590E-1,1.215747457E1
2.699756208E0,1.218128967E1,9.543430805E-1,9.986846894E-2,1.221902461E1
2.702264906E0,1.220579052E1,8.712524772E-1,-9.853689000E-3,1.223685009E1
2.704773603E0,1.219620323E1,8.084019423E-1,-1.259674281E-1,1.222361464E1
2.707282301E0,1.217063713E1,7.796398401E-1,-2.463422120E-1,1.219807079E1
2.709790999E0,1.214187527E1,7.870966792E-1,-3.624559641E-1,1.217275772E1
2.712299697E0,1.212483120E1,8.275766969E-1,-4.732433856E-1,1.216225202E1
2.714808395E0,1.212483120E1,8.797746301E-1,-5.744433999E-1,1.217027199E1
2.717317093E0,1.214400578E1,9.309072495E-1,-6.585992575E-1,1.219742668E1
2.719825791E0,1.217915916E1,9.692567587E-1,-7.257108688E-1,1.223920066E1
2.722334489E0,1.223242283E1,9.905620217E-1,-7.779088020E-1,1.229709411E1
2.724843187E0,1.230166435E1,9.948230982E-1,-8.151929975E-1,1.236871693E1
2.727351885E0,1.238688564E1,9.852356911E-1,-8.439550996E-1,1.245463309E1
2.729860583E0,1.248382473E1,9.607346654E-1,-8.684561849E-1,1.255082097E1
2.732369281E0,1.259354687E1,9.138630629E-1,-8.876309395E-1,1.265782197E1
2.734877978E0,1.271285629E1,8.360987902E-1,-9.025446177E-1,1.277224973E1
2.737386676E0,1.283216572E1,7.114629745E-1,-9.249151349E-1,1.288511252E1
2.739895374E0,1.294508362E1,5.261070728E-1,-9.579383135E-1,1.299113638E1
2.742404072E0,1.304202271E1,2.651174963E-1,-1.011201501E0,1.308385157E1
2.744912770E0,1.311126518E1,-8.428898454E-2,-1.087900519E0,1.315659176E1
2.747421468E0,1.314322281E1,-5.114597082E-1,-1.189100504E0,1.320681100E1
2.749930166E0,1.313363552E1,-9.940241575E-1,-1.316932201E0,1.323687185E1
2.752438864E0,1.307824135E1,-1.502154946E0,-1.472460628E0,1.324632049E1
2.754947562E0,1.296745396E1,-2.026264668E0,-1.635445952E0,1.322631068E1
2.757456260E0,1.279914284E1,-2.569549084E0,-1.789909244E0,1.317666175E1
2.759964958E0,1.257330704E1,-3.134138823E0,-1.932654619E0,1.310137511E1
2.762473656E0,1.228568554E1,-3.712576866E0,-2.062616825E0,1.299906475E1
2.764982353E0,1.193414879E1,-4.295276165E0,-2.182991505E0,1.287007213E1
2.767491051E0,1.152402210E1,-4.855604649E0,-2.291648388E0,1.271344305E1
2.769999749E0,1.105956745E1,-5.369061947E0,-2.386456966E0,1.252341947E1
2.772508447E0,1.054504490E1,-5.807950497E0,-2.462090492E0,1.228788633E1
2.775017093E0,9.981520653E0,-6.155226707E0,-2.507896900E0,1.199196052E1
2.777525739E0,9.363667488E0,-6.402367592E0,-2.524941206E0,1.162083937E1
2.780034385E0,8.698943138E0,-6.535525799E0,-2.517484188E0,1.116791994E1
2.782543031E0,7.983085632E0,-6.564287663E0,-2.483395815E0,1.062952414E1
2.785051676E0,7.212900162E0,-6.501437187E0,-2.412023306E0,1.000562195E1
2.787560322E0,6.397973537E0,-6.350169659E0,-2.308692694E0,9.305309346E0
2.790068968E0,5.544697285E0,-6.110485554E0,-2.167012453E0,8.530981459E0
2.792577614E0,4.653071404E0,-5.784514904E0,-1.985917687E0,7.684761234E0
2.795086260E0,3.724161625E0,-5.379714489E0,-1.757951379E0,6.775035117E0
2.797594906E0,2.762228727E0,-4.892889023E0,-1.489504933E0,5.812821645E0
2.800103551E0,1.782186031E0,-4.313385487E0,-1.186969995E0,4.815639021E0
2.802612197E0,7.861645818E-1,-3.648661137E0,-8.546077609E-1,3.828986454E0
2.805120843E0,-2.247706354E-1,-2.930673361E0,-5.020055175E-1,2.981841331E0
2.807629489E0,-1.257011056E0,-2.183923721E0,-1.376853287E-1,2.523599981E0
2.810138135E0,-2.303100109E0,-1.425455928E0,2.351569533E-1,2.718730128E0
2.812646781E0,-3.363037348E0,-6.723145247E-1,6.165213585E-1,3.484555296E0
2.815155426E0,-4.433627129E0,6.271740049E-2,9.978857040E-1,4.544970722E0
2.817664072E0,-5.508478165E0,7.753787637E-1,1.374989033E0,5.730195351E0
2.820172718E0,-6.589720726E0,1.459277987E0,1.746766090E0,6.971736030E0
2.822681364E0,-7.674159050E0,2.114415169E0,2.106825113E0,8.234207958E0
2.825190010E0,-8.756466866E0,2.745051146E0,2.449840069E0,9.498038435E0
2.827698656E0,-9.835578918E0,3.345860004E0,2.769419193E0,1.075188702E1
2.830207301E0,-1.090403843E1,3.923232794E0,3.055974960E0,1.198452304E1
2.832715947E0,-1.197036743E1,4.492083549E0,3.302051067E0,1.320500103E1
2.835224593E0,-1.302817440E1,5.056673527E0,3.502320528E0,1.440727332E1
2.837733239E0,-1.408385086E1,5.615936756E0,3.650392294E0,1.559547898E1
2.840241885E0,-1.513100433E1,6.160286427E0,3.746265888E0,1.676099428E1
2.842750531E0,-1.616644096E1,6.676939487E0,3.783550024E0,1.789554652E1
2.845259176E0,-1.719441986E1,7.145655155E0,3.756918430E0,1.899533885E1
2.847767822E0,-1.821174812E1,7.539803028E0,3.666371107E0,2.004890711E1
2.850276468E0,-1.921096420E1,7.838076591E0,3.508712053E0,2.104299528E1
2.852785114E0,-2.017183304E1,8.036215782E0,3.283941507E0,2.196059844E1
2.855293760E0,-2.108476257E1,8.126763344E0,2.988863468E0,2.279352540E1
2.857802406E0,-2.193271255E1,8.111849785E0,2.621347427E0,2.353120161E1
2.860311051E0,-2.271142006E1,8.003192902E0,2.180328369E0,2.417878263E1
2.862819697E0,-2.340703773E1,7.798662186E0,1.670067072E0,2.472847896E1
2.865328343E0,-2.399932480E1,7.482278824E0,1.107607841E0,2.516304597E1
2.867836989E0,-2.445738792E1,7.080674171E0,5.142560005E-1,2.546692424E1
2.870345635E0,-2.474820518E1,6.629002571E0,-9.400951862E-2,2.562081522E1
2.872854281E0,-2.480466461E1,6.206092834E0,-7.150582075E-1,2.557925493E1
2.875362926E0,-2.452449989E1,5.858817101E0,-1.344629049E0,2.525044277E1
2.877871572E0,-2.387362289E1,5.442298889E0,-1.947568297E0,2.456341812E1
2.880380218E0,-2.290423393E1,4.828706741E0,-2.443981171E0,2.353493966E1
2.882888864E0,-2.159289360E1,4.069173813E0,-2.794452906E0,2.214994800E1
2.885397510E0,-1.999286842E1,3.142394543E0,-3.005375147E0,2.046024709E1
2.887906156E0,-1.821174812E1,2.043042421E0,-3.076747656E0,1.858246938E1
2.890414853E0,-1.631557846E1,8.701872230E-1,-3.007505655E0,1.661326026E1
2.892923551E0,-1.437360191E1,-3.005374968E-1,-2.791257143E0,1.464519960E1
2.895432249E0,-1.244441032E1,-1.399889588E0,-2.450372696E0,1.276038266E1
2.897940947E0,-1.055676270E1,-2.389519453E0,-2.033854723E0,1.101324688E1
2.900449645E0,-8.745814323E0,-3.234273672E0,-1.593900681E0,9.459932016E0
2.902958343E0,-7.056306362E0,-3.910716057E0,-1.151816368E0,8.149346017E0
2.905467041E0,-5.515934944E0,-4.435891151E0,-7.342329621E-1,7.116302878E0
2.907975739E0,-4.133223057E0,-4.836430073E0,-3.603254259E-1,6.372160003E0
2.910484437E0,-2.903908730E0,-5.132573605E0,-3.435475379E-2,5.897217816E0
2.912993135E0,-1.803491354E0,-5.333908081E0,2.415485233E-1,5.635734395E0
2.915501833E0,-8.085350990E-1,-5.425520897E0,4.684496820E-1,5.505401994E0
2.918010531E0,1.150484756E-1,-5.410607338E0,6.559360623E-1,5.451436511E0
2.920519228E0,1.000282526E0,-5.294493675E0,8.146603703E-1,5.449394455E0
2.923027926E0,1.867407203E0,-5.098484993E0,9.467530847E-1,5.511633178E0
2.925536624E0,2.731335878E0,-4.848147869E0,1.052214146E0,5.663204751E0
2.928045322E0,3.600591183E0,-4.560526848E0,1.134239435E0,5.920233196E0
2.930554020E0,4.470911503E0,-4.246273994E0,1.196024776E0,6.280952775E0
2.933062718E0,5.334840298E0,-3.901128531E0,1.226917386E0,6.721952922E0
2.935571416E0,6.180659771E0,-3.515503168E0,1.236504793E0,7.217219813E0
2.938080114E0,6.993455887E0,-3.092593431E0,1.223721623E0,7.744033444E0
2.940588812E0,7.759380341E0,-2.636660576E0,1.190698385E0,8.281166881E0
2.943097510E0,8.457127571E0,-2.161553144E0,1.142761588E0,8.803477881E0
2.945606208E0,9.064328194E0,-1.704555035E0,1.087367892E0,9.287083633E0
2.948114906E0,9.585242271E0,-1.272057891E0,1.025582552E0,9.723518923E0
2.950623603E0,1.001454353E1,-8.470177650E-1,9.627320170E-1,1.009630498E1
2.953132301E0,1.035649300E1,-4.145207107E-1,9.041424990E-1,1.040414572E1
2.955640999E0,1.061535263E1,1.691105962E-2,8.519446254E-1,1.064949797E1
2.958149697E0,1.079431629E1,4.259723127E-1,8.061382771E-1,1.083275475E1
2.960658395E0,1.090190792E1,7.934882641E-1,7.699192762E-1,1.095782805E1
2.963167093E0,1.094771481E1,1.106675744E0,7.390266657E-1,1.102829774E1
2.965675791E0,1.094025803E1,1.358078003E0,7.102645040E-1,1.104708546E1
2.968184489E0,1.089232063E1,1.556217074E0,6.825676560E-1,1.102408087E1
2.970693187E0,1.081242561E1,1.708549738E0,6.601971388E-1,1.096647391E1
2.973201885E0,1.071229076E1,1.819337130E0,6.420876384E-1,1.088464228E1
2.975710583E0,1.059404659E1,1.890709758E0,6.293044686E-1,1.077982517E1
2.978219281E0,1.047260666E1,1.926928759E0,6.175866127E-1,1.066630010E1
2.980727978E0,1.035223198E1,1.934385657E0,6.111950278E-1,1.054912860E1
2.983236676E0,1.024996662E1,1.926928759E0,6.133255363E-1,1.044753743E1
2.985745374E0,1.017752838E1,1.905623555E0,6.303697824E-1,1.037356502E1
2.988254072E0,1.013917923E1,1.863012910E0,6.655234694E-1,1.033037725E1
2.990762770E0,1.013917923E1,1.786314011E0,7.198519111E-1,1.032046801E1
2.993271468E0,1.017326736E1,1.669134974E0,7.912245989E-1,1.033960429E1
2.995780166E0,1.023931408E1,1.509345412E0,8.732498884E-1,1.038673393E1
2.998288864E0,1.032986164E1,1.311206341E0,9.627320170E-1,1.045715815E1
3.000797562E0,1.043745327E1,1.075783134E0,1.044757366E0,1.054463172E1
3.003306260E0,1.055356693E1,8.073366880E-1,1.118260503E0,1.064331124E1
3.005814958E0,1.067287636E1,5.111933947E-1,1.177915215E0,1.074984152E1
3.008323656E0,1.078579426E1,1.926795542E-1,1.222656369E0,1.085658196E1
3.010832353E0,1.088166809E1,-1.450090110E-1,1.249287963E0,1.095410647E1
3.013341051E0,1.096049786E1,-4.922849536E-1,1.258875251E0,1.104353316E1
3.015849749E0,1.102334785E1,-8.491482735E-1,1.249287963E0,1.112636379E1
3.018358447E0,1.105956745E1,-1.215598941E0,1.220525861E0,1.119291724E1
3.020867145E0,1.106489372E1,-1.595898151E0,1.173654199E0,1.124082863E1
3.023375843E0,1.103932667E1,-1.990045667E0,1.106542587E0,1.127171023E1
3.025884541E0,1.097967243E1,-2.395910978E0,1.017060518E0,1.128397130E1
3.028393187E0,1.088166809E1,-2.798580647E0,9.073383212E-1,1.127235632E1
3.030901833E0,1.074957561E1,-3.195924044E0,7.837677002E-1,1.124195705E1
3.033410478E0,1.057913303E1,-3.579418898E0,6.463487148E-1,1.118695946E1
3.035919124E0,1.037247181E1,-3.935217142E0,5.036033988E-1,1.110530152E1
3.038427770E0,1.012639618E1,-4.255861282E0,3.619233072E-1,1.099032499E1
3.040936416E0,9.836644173E0,-4.533895016E0,2.255695760E-1,1.083358917E1
3.043445062E0,9.504281998E0,-4.763992310E0,9.986846894E-2,1.063188472E1
3.045953708E0,9.133570671E0,-4.934434414E0,-1.518000662E-2,1.038128059E1
3.048462353E0,8.727705002E0,-5.049482822E0,-1.163800508E-1,1.008383140E1
3.050970999E0,8.285620689E0,-5.108072281E0,-2.069274634E-1,9.735847760E0
3.053479645E0,7.805186749E0,-5.110202789E0,-2.846917212E-1,9.333603918E0
3.055988291E0,7.287468433E0,-5.064396381E0,-3.507380486E-1,8.881346973E0
3.058496937E0,6.734596729E0,-4.974914551E0,-4.071970284E-1,8.382742828E0
3.061005583E0,6.152962685E0,-4.836430073E0,-4.561991692E-1,7.839523157E0
3.063514228E0,5.540436268E0,-4.645747662E0,-5.041360259E-1,7.248003760E0
3.066022874E0,4.892755985E0,-4.404998302E0,-5.456812978E-1,6.606121347E0
3.068531520E0,4.217378616E0,-4.119507790E0,-5.819002390E-1,5.924123117E0
3.071040166E0,3.510043621E0,-3.792471647E0,-6.095971465E-1,5.203350469E0
3.073548812E0,2.775011778E0,-3.427086353E0,-6.266413331E-1,4.454019600E0
3.076057458E0,2.014413595E0,-3.037199736E0,-6.340981722E-1,3.699260042E0
3.078566103E0,1.228248954E0,-2.616420746E0,-6.298371553E-1,2.958200104E0
3.081074749E0,4.175833464E-1,-2.167944670E0,-6.127929091E-1,2.291260590E0
3.083583395E0,-4.133222997E-1,-1.698163390E0,-5.904223919E-1,1.844774464E0
3.086092041E0,-1.267663717E0,-1.213468432E0,-5.563339591E-1,1.840919447E0
3.088600687E0,-2.139049292E0,-7.213166356E-1,-5.115928650E-1,2.314639674E0
3.091109333E0,-3.025348663E0,-2.259690464E-1,-4.583296776E-1,3.068201857E0
3.093617978E0,-3.925496578E0,2.725743353E-1,-3.997401893E-1,3.955200674E0
3.096126624E0,-4.834166527E0,7.807050943E-1,-3.390201628E-1,4.908523314E0
3.098635270E0,-5.744966984E0,1.297357917E0,-2.857569754E-1,5.896561732E0
3.101143916E0,-6.658963203E0,1.817206621E0,-2.442116886E-1,6.906784360E0
3.103652562E0,-7.574024677E0,2.329598427E0,-2.143843025E-1,7.927095261E0
3.106161208E0,-8.485890388E0,2.827076435E0,-2.016011477E-1,8.946694355E0
3.108669853E0,-9.388168335E0,3.301118851E0,-2.037316710E-1,9.953722768E0
3.111178499E0,-1.027553272E1,3.743203163E0,-2.186453640E-1,1.093827904E1
3.113687145E0,-1.114585304E1,4.145873070E0,-2.420811653E-1,1.189440654E1
3.116195791E0,-1.200552082E1,4.497409821E0,-2.697780132E-1,1.282310436E1
3.118704437E0,-1.284707928E1,4.792488098E0,-2.974748611E-1,1.371509677E1
3.121213083E0,-1.366839790E1,5.028976440E0,-3.177148700E-1,1.456765760E1
3.123721728E0,-1.447373676E1,5.205810070E0,-3.304980397E-1,1.538501685E1
3.126230374E0,-1.525990200E1,5.314466953E0,-3.315632939E-1,1.616224311E1
3.128739020E0,-1.603008652E1,5.341098785E0,-3.198454082E-1,1.689950624E1
3.131247666E0,-1.678855515E1,5.284639835E0,-2.900180221E-1,1.760304271E1
3.133756312E0,-1.752252197E1,5.146155357E0,-2.463422120E-1,1.826423762E1
3.136264958E0,-1.822985649E1,4.929906845E0,-1.898832470E-1,1.888564812E1
3.138773603E0,-1.890629959E1,4.638024807E0,-1.280979514E-1,1.946730201E1
3.141282301E0,-1.954439163E1,4.276900291E0,-6.631266326E-2,2.000698672E1
3.143790999E0,-2.012922096E1,3.866773844E0,-1.518000662E-2,2.049726096E1
3.146299697E0,-2.065226555E1,3.424689531E0,1.358211134E-2,2.093429615E1
3.148808395E0,-2.110393715E1,2.957038641E0,6.125265732E-3,2.131009803E1
3.151317093E0,-2.143523407E1,2.491518497E0,-5.779055133E-2,2.157962613E1
3.153825791E0,-2.158437157E1,2.046238184E0,-1.877527237E-1,2.168196111E1
3.156334489E0,-2.147997665E1,1.596697092E0,-3.880222738E-1,2.154273427E1
3.158843187E0,-2.112524414E1,1.047021031E0,-6.447508335E-1,2.116099943E1
3.161351885E0,-2.051271629E1,3.631217480E-1,-9.227846265E-1,2.053667253E1
3.163860583E0,-1.961576462E1,-4.209122956E-1,-1.197622657E0,1.965679752E1
3.166369281E0,-1.846847534E1,-1.288036942E0,-1.430915356E0,1.856855243E1
3.168877978E0,-1.708469772E1,-2.219077349E0,-1.598161817E0,1.730217679E1
3.171386676E0,-1.552302170E1,-3.222555637E0,-1.661012292E0,1.594076627E1
3.173895374E0,-1.385268879E1,-4.292080402E0,-1.613075495E0,1.459181118E1
3.176404072E0,-1.213974476E1,-5.374388218E0,-1.467134356E0,1.335701818E1
3.178912770E0,-1.044491005E1,-6.392780304E0,-1.241298437E0,1.230872080E1
3.181421468E0,-8.824644089E0,-7.258839607E0,-9.590035677E-1,1.146668145E1
3.183930166E0,-7.319426537E0,-7.895867348E0,-6.617950201E-1,1.078687622E1
3.186438864E0,-5.961215496E0,-8.242077827E0,-3.699128032E-1,1.017864296E1
3.188947562E0,-4.768120289E0,-8.288949966E0,-1.004010960E-1,9.563040469E0
3.191456260E0,-3.728422642E0,-8.064178467E0,1.371526867E-1,8.885433056E0
3.193964958E0,-2.816557169E0,-7.600789070E0,3.416832983E-1,8.113059611E0
3.196473656E0,-1.996304035E0,-6.891323566E0,5.142560005E-1,7.193054256E0
3.198982353E0,-1.230379462E0,-5.904889584E0,6.548708081E-1,6.067158346E0
3.201491051E0,-4.814991653E-1,-4.812994480E0,7.699192762E-1,4.897911086E0
3.203999749E0,3.025348783E-1,-3.724294901E0,8.604667187E-1,3.834358204E0
3.206508447E0,1.143027902E0,-2.665422678E0,9.147951603E-1,3.041026311E0
3.209017145E0,2.041045189E0,-1.675792813E0,9.307740927E-1,2.800087039E0
3.211525843E0,2.983803511E0,-7.948198318E-1,9.094688296E-1,3.218999147E0
3.214034541E0,3.945736408E0,-4.061317816E-2,8.562056422E-1,4.037768361E0
3.216543239E0,4.911930561E0,5.996102691E-1,7.784414291E-1,5.009247984E0
3.219051937E0,5.869602680E0,1.142894745E0,6.868287325E-1,6.019150914E0
3.221560635E0,6.799577713E0,1.597762346E0,5.920202732E-1,7.009820939E0
3.224069333E0,7.685877323E0,1.961017251E0,5.014728308E-1,7.947941487E0
3.226578031E0,8.517848015E0,2.225202560E0,4.173170328E-1,8.813592613E0
3.229086728E0,9.282707214E0,2.397775412E0,3.480748832E-1,9.593702949E0
3.231595426E0,9.979390144E0,2.491518497E0,2.905506492E-1,1.028981592E1
3.234104124E0,1.061322212E1,2.526672125E0,2.383527458E-1,1.091244097E1
3.236612822E0,1.117781162E1,2.521345854E0,1.904158741E-1,1.146023193E1
3.239121520E0,1.167635441E1,2.480865955E0,1.424790174E-1,1.193784941E1
3.241630218E0,1.210778618E1,2.404166937E0,8.815056831E-2,1.234448360E1
3.244138916E0,1.246251965E1,2.264617443E0,2.210422046E-2,1.266662452E1
3.246647614E0,1.274481392E1,2.025998354E0,-5.992107838E-2,1.290498127E1
3.249156312E0,1.297171497E1,1.738377094E0,-1.536642760E-1,1.308858117E1
3.251665010E0,1.315600586E1,1.460343242E0,-2.559295893E-1,1.323928218E1
3.254173708E0,1.329129410E1,1.206810594E0,-3.635212183E-1,1.335091901E1
3.256682406E0,1.338290691E1,9.788441062E-1,-4.743086398E-1,1.342703623E1
3.259191103E0,1.343723583E1,7.817703485E-1,-5.872265697E-1,1.347276166E1
3.261699801E0,1.345427990E1,6.102629304E-1,-7.022750378E-1,1.348641015E1
3.264208499E0,1.344043159E1,4.557996690E-1,-8.162582517E-1,1.347290735E1
3.266717197E0,1.341166878E1,3.247722387E-1,-9.302414656E-1,1.344781341E1
3.269225895E0,1.338184166E1,2.257027328E-1,-1.044224739E0,1.342441929E1
3.271734593E0,1.335947132E1,1.585911214E-1,-1.149685740E0,1.340978756E1
3.274243291E0,1.334881878E1,1.181111038E-1,-1.244494200E0,1.340722487E1
3.276751937E0,1.335734081E1,9.574057162E-2,-1.326519608E0,1.342338907E1
3.279260583E0,1.338184166E1,8.402267098E-2,-1.393631101E0,1.345447709E1
3.281769228E0,1.341912651E1,8.402267098E-2,-1.443698525E0,1.349682487E1
3.284277874E0,1.347238922E1,9.147951752E-2,-1.484178543E0,1.355420325E1
3.286786520E0,1.353950119E1,1.031974182E-1,-1.511875391E0,1.362404160E1
3.289295166E0,1.361300373E1,1.138500497E-1,-1.529984951E0,1.369918561E1
3.291803812E0,1.369183350E1,1.191763729E-1,-1.539572239E0,1.377863528E1
3.294312458E0,1.376746750E1,1.042626798E-1,-1.542768121E0,1.385403066E1
3.296821103E0,1.382925224E1,5.419528857E-2,-1.542768121E0,1.391514600E1
3.299329749E0,1.387079811E1,-4.061317816E-2,-1.541702747E0,1.395627232E1
3.301838395E0,1.388251591E1,-1.790974438E-1,-1.551290154E0,1.397006890E1
3.304347041E0,1.386334133E1,-3.559312224E-1,-1.582182765E0,1.395787313E1
3.306855687E0,1.380262089E1,-5.583313107E-1,-1.635445952E0,1.391038320E1
3.309364333E0,1.370887756E1,-7.873629928E-1,-1.702557564E0,1.383661688E1
3.311872978E0,1.357145882E1,-1.061135769E0,-1.782452345E0,1.372908008E1
3.314381624E0,1.338290691E1,-1.386041164E0,-1.868738770E0,1.358364797E1
3.316890270E0,1.314322281E1,-1.762079239E0,-1.965677738E0,1.340571214E1
3.319398916E0,1.284814453E1,-2.190315247E0,-2.072204113E0,1.319720912E1
3.321907562E0,1.250619507E1,-2.646248102E0,-2.180860996E0,1.296779468E1
3.324416208E0,1.210672092E1,-3.117094517E0,-2.289517879E0,1.270947921E1
3.326924853E0,1.165291882E1,-3.567701101E0,-2.397109509E0,1.242035193E1
3.329433499E0,1.115437603E1,-3.975697041E0,-2.502570629E0,1.210326945E1
3.331942145E0,1.061428738E1,-4.320842266E0,-2.602705479E0,1.175188709E1
3.334450791E0,1.003052235E1,-4.599941730E0,-2.692187548E0,1.135864060E1
3.336959437E0,9.400951385E0,-4.817255497E0,-2.761429787E0,1.091830261E1
3.339468083E0,8.726639748E0,-4.986632347E0,-2.811496973E0,1.043672644E1
3.341976728E0,8.018239021E0,-5.108072281E0,-2.838128567E0,9.921669879E0
3.344485374E0,7.283207417E0,-5.179444790E0,-2.829606533E0,9.374349670E0
3.346994020E0,6.526870251E0,-5.198619843E0,-2.765690804E0,8.790604596E0
3.349502666E0,5.753489017E0,-5.160270214E0,-2.637859106E0,8.166353239E0
3.352011312E0,4.961997986E0,-5.069722652E0,-2.459959984E0,7.508323042E0
3.354519958E0,4.164115429E0,-4.917390347E0,-2.251168489E0,6.825565522E0
3.357028603E0,3.359841585E0,-4.709663868E0,-2.024267197E0,6.129202796E0
3.359537249E0,2.560893774E0,-4.446543694E0,-1.784582973E0,5.432740020E0
3.362045895E0,1.774729252E0,-4.137617111E0,-1.525723815E0,4.753669365E0
3.364554541E0,9.811078310E-1,-3.776492834E0,-1.228515267E0,4.090687041E0
3.367063187E0,1.416800618E-1,-3.269427299E0,-8.908267021E-1,3.391577851E0
3.369571833E0,-8.138614297E-1,-2.427869081E0,-5.297023654E-1,2.614862004E0
3.372080478E0,-1.827992439E0,-1.333843231E0,-1.664474458E-1,2.269008346E0
3.374589124E0,-2.780338049E0,-3.122554123E-1,1.904158741E-1,2.804289806E0
3.377097770E0,-3.616569996E0,4.270375669E-1,5.430181623E-1,3.681957135E0
3.379606416E0,-4.350536823E0,8.542082906E-1,8.913593292E-1,4.522318422E0
3.382115062E0,-5.022717953E0,1.071522117E0,1.220525861E0,5.278781929E0
3.384623708E0,-5.634179592E0,1.161004186E0,1.532648087E0,5.953227742E0
3.387132353E0,-6.200899601E0,1.169526339E0,1.813877702E0,6.565752054E0
3.389641051E0,-6.742053509E0,1.138633728E0,2.030126095E0,7.132544023E0
3.392149749E0,-7.274685383E0,1.068326235E0,2.200568438E0,7.674950802E0
3.394658447E0,-7.811578274E0,9.660609365E-1,2.367814779E0,8.219524055E0
3.397167145E0,-8.365515709E0,9.042756557E-1,2.540387392E0,8.789376294E0
3.399675843E0,-8.948214531E0,9.394294024E-1,2.716156006E0,9.398434675E0
3.402184541E0,-9.552219391E0,1.067260981E0,2.897250891E0,1.003882483E1
3.404693239E0,-1.015515804E1,1.246225357E0,3.082606554E0,1.068563408E1
3.407201937E0,-1.075490189E1,1.435842276E0,3.260505676E0,1.132962731E1
3.409710635E0,-1.134612274E1,1.610545516E0,3.424556255E0,1.196059964E1
3.412219333E0,-1.192562675E1,1.728789687E0,3.581150055E0,1.257115440E1
3.414728031E0,-1.247210693E1,1.751160264E0,3.740939617E0,1.313828919E1
3.417236728E0,-1.298023701E1,1.676591754E0,3.896468163E0,1.365576716E1
3.419745426E0,-1.344362736E1,1.514671683E0,4.048800945E0,1.412154864E1
3.422254124E0,-1.385162354E1,1.270726323E0,4.202198982E0,1.453068120E1
3.424762822E0,-1.420102978E1,9.681915045E-1,4.350270271E0,1.488393406E1
3.427271520E0,-1.451208687E1,6.933534741E-1,4.479167461E0,1.520343203E1
3.429780218E0,-1.482633972E1,5.740439296E-1,4.578236580E0,1.552772122E1
3.432288916E0,-1.517468071E1,7.593998313E-1,4.644283295E0,1.588763639E1
3.434797614E0,-1.557522011E1,1.288835883E0,4.676240921E0,1.631305638E1
3.437306312E0,-1.606524086E1,2.034520388E0,4.653870583E0,1.684902812E1
3.439815010E0,-1.666498375E1,2.783400774E0,4.561192513E0,1.750067085E1
3.442323708E0,-1.736060143E1,3.373556852E0,4.399272442E0,1.822429603E1
3.444832406E0,-1.809989548E1,3.710180044E0,4.180893421E0,1.894337673E1
3.447341103E0,-1.879444695E1,3.880622387E0,3.899663925E0,1.958310100E1
3.449849801E0,-1.937288475E1,3.989279270E0,3.549192190E0,2.009526755E1
3.452358499E0,-1.978514099E1,4.053195000E0,3.131608725E0,2.043739629E1
3.454867197E0,-1.999393272E1,4.086218357E0,2.656501293E0,2.057939565E1
3.457375895E0,-1.997688866E1,4.097936153E0,2.137717724E0,2.050460919E1
3.459884593E0,-1.965198326E1,4.166112900E0,1.591237545E0,2.015164955E1
3.462393291E0,-1.901176071E1,4.330163479E0,1.039430976E0,1.952633550E1
3.464901989E0,-1.808711052E1,4.383426666E0,5.046686530E-1,1.861753707E1
3.467410687E0,-1.690360260E1,4.104327679E0,1.145158429E-2,1.739475259E1
3.469919385E0,-1.551449966E1,3.519497871E0,-4.263717830E-1,1.591440725E1
3.472428083E0,-1.394323540E1,2.786596537E0,-7.917572260E-1,1.424099059E1
3.474936781E0,-1.226864147E1,1.971669793E0,-1.058073163E0,1.247102899E1
3.477445478E0,-1.055569744E1,1.146090508E0,-1.219993234E0,1.068759353E1
3.479954176E0,-8.835296631E0,4.099933505E-1,-1.279647946E0,8.936893194E0
3.482462874E0,-7.147919178E0,-1.929458827E-1,-1.241298437E0,7.257465019E0
3.484971572E0,-5.507412910E0,-6.286386847E-1,-1.114532113E0,5.654110486E0
3.487480270E0,-3.941475391E0,-9.322388172E-1,-9.195888638E-1,4.153304847E0
3.489988968E0,-2.455432653E0,-1.165531635E0,-6.852308512E-1,2.803061688E0
3.492497666E0,-1.055676222E0,-1.372192740E0,-4.316980839E-1,1.784300546E0
3.495006364E0,2.684464455E-1,-1.551156998E0,-1.834916621E-1,1.584872460E0
3.497515062E0,1.516935468E0,-1.717338204E0,4.447475821E-2,2.291794434E0
3.500023760E0,2.703639030E0,-1.856887698E0,2.319611609E-1,3.288084839E0
3.502532458E0,3.828557491E0,-1.971936107E0,3.683148921E-1,4.322272589E0
3.505041156E0,4.897017002E0,-2.072070837E0,4.546012580E-1,5.336751388E0
3.507549853E0,5.910082817E0,-2.147704601E0,4.886896908E-1,6.307180953E0
3.510058551E0,6.863493443E0,-2.182858467E0,4.791023135E-1,7.218168213E0
3.512567249E0,7.768967628E0,-2.153030872E0,4.428833723E-1,8.073942385E0
3.515075947E0,8.616917610E0,-2.065679312E0,3.938812315E-1,8.869805102E0
3.517584645E0,9.394559860E0,-1.949565649E0,3.310306668E-1,9.600424079E0
3.520093343E0,1.010722160E1,-1.814277172E0,2.607232630E-1,1.027207412E1
3.522602041E0,1.075170612E1,-1.673662305E0,1.893506050E-1,1.088283896E1
3.525110739E0,1.132055664E1,-1.537308574E0,1.158474237E-1,1.142504884E1
3.527619385E0,1.180844784E1,-1.415868521E0,4.234423116E-2,1.189310376E1
3.530128031E0,1.221218204E1,-1.290167451E0,-2.583264373E-2,1.228017059E1
3.532636676E0,1.254773998E1,-1.125051618E0,-8.974846452E-2,1.259839572E1
3.535145322E0,1.281405640E1,-9.034767151E-1,-1.675127149E-1,1.284695964E1
3.537653968E0,1.301965237E1,-6.467481852E-1,-2.537990510E-1,1.303817644E1
3.540162614E0,1.316452789E1,-3.708449006E-1,-3.475422561E-1,1.317433513E1
3.542671260E0,1.325614071E1,-9.813741595E-2,-4.423507154E-1,1.326388222E1
3.545179906E0,1.330407715E1,1.692437679E-1,-5.328981280E-1,1.331582114E1
3.547688551E0,1.330514240E1,4.387554526E-1,-6.149234176E-1,1.332656938E1
3.550197197E0,1.326466274E1,7.295724154E-1,-6.788392663E-1,1.330204407E1
3.552705843E0,1.318263721E1,1.070456743E0,-7.246456146E-1,1.324586399E1
3.555214489E0,1.305800152E1,1.453951716E0,-7.448856235E-1,1.315979612E1
3.557723135E0,1.289927769E1,1.883252978E0,-7.438203096E-1,1.305723077E1
3.560231781E0,1.271818256E1,2.344512224E0,-7.267761230E-1,1.295288033E1
3.562740426E0,1.252750015E1,2.824945927E0,-6.980140209E-1,1.286101874E1
3.565249072E0,1.233681870E1,3.309640884E0,-6.628602743E-1,1.279023855E1
3.567757718E0,1.215891933E1,3.775161266E0,-6.223802567E-1,1.274670621E1
3.570266364E0,1.200871658E1,4.207658291E0,-5.787044764E-1,1.273768272E1
3.572775010E0,1.188727665E1,4.590087891E0,-5.350286365E-1,1.275392130E1
3.575283656E0,1.179246807E1,4.911797523E0,-4.902876019E-1,1.278391333E1
3.577792301E0,1.172216129E1,5.174917698E0,-4.412854612E-1,1.282121568E1
3.580300947E0,1.167102814E1,5.368795395E0,-3.816306889E-1,1.285233456E1
3.582809593E0,1.163694000E1,5.438037872E0,-3.209106624E-1,1.284887591E1
3.585318239E0,1.163267899E1,5.232441902E0,-2.740390599E-1,1.275824306E1
3.587826885E0,1.164865780E1,4.596479416E0,-2.708432674E-1,1.252566196E1
3.590335531E0,1.162415695E1,3.947733879E0,-3.145190775E-1,1.228025040E1
3.592844176E0,1.152828312E1,3.627089500E0,-3.720433414E-1,1.209113337E1
3.595352822E0,1.134718800E1,3.605784178E0,-4.274370372E-1,1.191398579E1
3.597861468E0,1.108513355E1,3.745333910E0,-4.924181104E-1,1.171111385E1
3.600370114E0,1.076129341E1,3.972234964E0,-5.797697306E-1,1.148565276E1
3.602878760E0,1.039910412E1,4.257725716E0,-6.969487667E-1,1.125856706E1
3.605387406E0,1.001560879E1,4.566652298E0,-8.450203538E-1,1.103996341E1
3.607896051E0,9.616134644E0,4.872382641E0,-1.017593145E0,1.082800323E1
3.610404697E0,9.214530945E0,5.154677391E0,-1.205079436E0,1.062687612E1
3.612913343E0,8.815056801E0,5.391166210E0,-1.392565846E0,1.042636750E1
3.615421989E0,8.435822487E0,5.567999840E0,-1.566203833E0,1.022832917E1
3.617930635E0,8.078959465E0,5.697962284E0,-1.718536615E0,1.003442715E1
3.620439281E0,7.748727798E0,5.781052589E0,-1.859151363E0,9.844785184E0
3.622947926E0,7.439801216E0,5.798096657E0,-2.010418892E0,9.644187425E0
3.625456572E0,7.155375957E0,5.727789402E0,-2.162751436E0,9.417243243E0
3.627965218E0,6.877342224E0,5.557347298E0,-2.300170422E0,9.136341118E0
3.630473864E0,6.600373745E0,5.309140682E0,-2.418414831E0,8.809122468E0
3.632982510E0,6.302099705E0,5.010867119E0,-2.517484188E0,8.435815112E0
3.635491156E0,5.987846851E0,4.692353249E0,-2.588856936E0,8.035836556E0
3.637999801E0,5.655484676E0,4.363186836E0,-2.629337072E0,7.611525454E0
3.640508499E0,5.310339451E0,4.016975880E0,-2.634663343E0,7.160813587E0
3.643017197E0,4.940692902E0,3.649460077E0,-2.593117952E0,6.667328244E0
3.645525895E0,4.555067539E0,3.263834715E0,-2.512157917E0,6.141025544E0
3.648034593E0,4.157723904E0,2.870752335E0,-2.398174763E0,5.592774733E0
3.650543291E0,3.761445999E0,2.491518497E0,-2.259690523E0,5.046022363E0
3.653051989E0,3.363037348E0,2.135720491E0,-2.102031469E0,4.504426547E0
3.655560687E0,2.966759205E0,1.815076113E0,-1.925197721E0,3.975241846E0
3.658069385E0,2.575807571E0,1.535977006E0,-1.739841819E0,3.467139969E0
3.660578083E0,2.189116716E0,1.296292663E0,-1.552355409E0,2.980337897E0
3.663086781E0,1.799230337E0,1.081109405E0,-1.369130135E0,2.506101490E0
3.665595478E0,1.406147957E0,8.840356469E-1,-1.191231012E0,2.043967325E0
3.668104176E0,1.013065696E0,7.093324065E-1,-1.010136247E0,1.596818651E0
3.670612874E0,6.146571040E-1,5.601955056E-1,-8.247803450E-1,1.171274937E0
3.673121572E0,2.098569423E-1,4.312986135E-1,-6.372939944E-1,7.976227590E-1
3.675630270E0,-2.024000883E-1,3.024017215E-1,-4.487423003E-1,5.777389107E-1
3.678138968E0,-6.221139431E-1,1.607216448E-1,-2.623211741E-1,6.940242097E-1
3.680647666E0,-1.048219442E0,1.997369342E-3,-8.442214131E-2,1.051615465E0
3.683156364E0,-1.480716467E0,-1.822932363E-1,8.069372177E-2,1.494076155E0
3.685665062E0,-1.915344000E0,-3.868238628E-1,2.277000993E-1,1.967237320E0
3.688173760E0,-2.353167295E0,-6.009418368E-1,3.565970063E-1,2.454727854E0
3.690682458E0,-2.792056084E0,-8.129293323E-1,4.641886353E-1,2.944809393E0
3.693191156E0,-3.233075142E0,-1.019590497E0,5.526055098E-1,3.434779833E0
3.695699853E0,-3.675159454E0,-1.216664195E0,6.271739602E-1,3.921787342E0
3.698208551E0,-4.120439529E0,-1.394563317E0,6.942855716E-1,4.405094916E0
3.700717249E0,-4.568915844E0,-1.555418015E0,7.592666745E-1,4.885775586E0
3.703225947E0,-5.019522190E0,-1.692837119E0,8.231824636E-1,5.360870256E0
3.705734645E0,-5.469063759E0,-1.810016036E0,8.860330582E-1,5.828539356E0
3.708243343E0,-5.915409088E0,-1.904824495E0,9.456877708E-1,6.286075596E0
3.710752041E0,-6.360689163E0,-1.982588768E0,1.001081467E0,6.737298343E0
3.713260739E0,-6.803838730E0,-2.046504498E0,1.052214146E0,7.182447823E0
3.715769437E0,-7.242727280E0,-2.096571922E0,1.092694163E0,7.618838022E0
3.718278135E0,-7.678420544E0,-2.141313076E0,1.123586774E0,8.050205648E0
3.720786833E0,-8.113047600E0,-2.199902534E0,1.141696334E0,8.483194153E0
3.723295531E0,-8.556197166E0,-2.225468874E0,1.153414249E0,8.915805409E0
3.725804228E0,-9.011065483E0,-2.193511009E0,1.159805775E0,9.346440024E0
3.728312926E0,-9.469128609E0,-2.137052059E0,1.158740520E0,9.776199042E0
3.730821624E0,-9.939974785E0,-2.036917210E0,1.143826842E0,1.021080165E1
3.733330322E0,-1.041934395E1,-1.869670868E0,1.126782656E0,1.064556418E1
3.735839020E0,-1.093812752E1,-1.623594999E0,1.096955180E0,1.111224572E1
3.738347718E0,-1.151230431E1,-1.225186348E0,1.037300467E0,1.162369237E1
3.740856416E0,-1.213974476E1,-7.436871529E-1,9.414267540E-1,1.219888346E1
3.743365114E0,-1.278742504E1,-3.346259296E-1,8.093340397E-1,1.281738020E1
3.745873812E0,-1.341380024E1,-1.418132186E-1,6.559360623E-1,1.343057705E1
3.748382510E0,-1.398691177E1,-2.579269707E-1,4.886896908E-1,1.399782286E1
3.750891208E0,-1.448971558E1,-6.435524225E-1,3.299654126E-1,1.450775291E1
3.753399906E0,-1.492008209E1,-1.242230535E0,1.882853508E-1,1.497289009E1
3.755908603E0,-1.532275200E1,-2.018807650E0,5.512739345E-2,1.545526940E1
3.758417301E0,-1.571157360E1,-2.933869123E0,-5.352949724E-2,1.598324117E1
3.760925999E0,-1.608228493E1,-3.957587481E0,-1.110537350E-1,1.656244910E1
3.763434697E0,-1.645299721E1,-4.969588280E0,-1.089232042E-1,1.718748932E1
3.765943395E0,-1.683010101E1,-5.786645412E0,-4.713791609E-2,1.779718481E1
3.768452093E0,-1.722637749E1,-6.246839046E0,7.323687524E-2,1.832420375E1
3.770960791E0,-1.763863564E1,-6.153095722E0,2.479401082E-1,1.868270667E1
3.773469489E0,-1.803171730E1,-5.447891235E0,4.748412669E-1,1.884271270E1
3.775978135E0,-1.830016327E1,-4.517916203E0,7.379614115E-1,1.886404330E1
3.778486781E0,-1.833638382E1,-3.725360155E0,1.031974196E0,1.873943037E1
3.780995426E0,-1.800082588E1,-3.265166283E0,1.350487947E0,1.834434139E1
3.783504072E0,-1.722531319E1,-3.232143164E0,1.694568157E0,1.760766098E1
3.786012718E0,-1.610465622E1,-3.538938999E0,2.053561926E0,1.661629194E1
3.788521364E0,-1.464204884E1,-3.885149717E0,2.396576881E0,1.533713021E1
3.791030010E0,-1.293656158E1,-4.170640469E0,2.658631802E0,1.384980832E1
3.793538656E0,-1.112880898E1,-4.402867794E0,2.791789770E0,1.228941513E1
3.796047301E0,-9.304012299E0,-4.554135323E0,2.797116041E0,1.072980203E1
3.798555947E0,-7.513304234E0,-4.573309898E0,2.686328650E0,9.196807356E0
3.801064593E0,-5.796099663E0,-4.451869965E0,2.482863188E0,7.718712787E0
3.803573239E0,-4.212052345E0,-4.289949894E0,2.220808268E0,6.409137572E0
3.806081885E0,-2.769685507E0,-4.145073891E0,1.940644026E0,5.349663036E0
3.808590531E0,-1.453019619E0,-4.036417007E0,1.681784987E0,4.607855143E0
3.811099176E0,-2.514022291E-1,-3.988480330E0,1.462340713E0,4.255539775E0
3.813607822E0,8.511456251E-1,-3.970370770E0,1.289767981E0,4.260492268E0
3.816116468E0,1.859950304E0,-3.943739176E0,1.160871029E0,4.512218453E0
3.818625114E0,2.789925575E0,-3.894737005E0,1.071388960E0,4.909229609E0
3.821133760E0,3.647462606E0,-3.810581207E0,1.014929891E0,5.371647353E0
3.823642406E0,4.442149162E0,-3.687010527E0,9.882983565E-1,5.856916377E0
3.826151051E0,5.169724464E0,-3.527220964E0,9.882983565E-1,6.335935007E0
3.828659697E0,5.836579323E0,-3.332277775E0,9.978857040E-1,6.794520530E0
3.831168343E0,6.445910454E0,-3.121355534E0,1.006407857E0,7.232252673E0
3.833676989E0,6.996651649E0,-2.902976513E0,1.006407857E0,7.641548515E0
3.836185635E0,7.491999149E0,-2.678205967E0,9.851025343E-1,8.017060899E0
3.838694281E0,7.929822445E0,-2.429999590E0,9.435572624E-1,8.347291915E0
3.841202926E0,8.305860519E0,-2.141313076E0,8.583361506E-1,8.620283151E0
3.843711572E0,8.622243881E0,-1.822799206E0,7.368960977E-1,8.843568417E0
3.846220218E0,8.903473854E0,-1.482980132E0,5.834981799E-1,9.044973569E0
3.848728864E0,9.150614738E0,-1.134638906E0,4.045338631E-1,9.229561375E0
3.851237510E0,9.334905624E0,-8.044071794E-1,2.000032514E-1,9.371634608E0
3.853746156E0,9.452084541E0,-5.029376149E-1,-2.370211668E-2,9.465485207E0
3.856254801E0,9.519195557E0,-2.291648388E-1,-2.516685426E-1,9.525278874E0
3.858763447E0,9.557545662E0,1.051947847E-2,-4.753738940E-1,9.569366232E0
3.861272093E0,9.551154137E0,2.033322006E-1,-6.937529445E-1,9.578474956E0
3.863780739E0,9.521326065E0,3.812312186E-1,-9.100014567E-1,9.572308495E0
3.866289385E0,9.460606575E0,5.293028951E-1,-1.125184774E0,9.541974591E0
3.868798031E0,9.373254776E0,6.443513632E-1,-1.340368032E0,9.490504741E0
3.871306676E0,9.265663147E0,7.295724154E-1,-1.551290154E0,9.422913064E0
3.873815322E0,9.147418976E0,7.934882641E-1,-1.762212396E0,9.349347040E0
3.876323968E0,9.017457008E0,8.446208835E-1,-1.965677738E0,9.267783139E0
3.878832614E0,8.876841545E0,8.840356469E-1,-2.162751436E0,9.179179082E0
3.881341260E0,8.726639748E0,9.159935713E-1,-2.350237846E0,9.083881518E0
3.883849958E0,8.564719200E0,9.511472583E-1,-2.533463240E0,8.982067249E0
3.886358656E0,8.387886047E0,9.926925302E-1,-2.707101345E0,8.869637450E0
3.888867353E0,8.204660416E0,1.034237862E0,-2.873282433E0,8.754533250E0
3.891376051E0,8.009716988E0,1.089631557E0,-3.032006741E0,8.633419255E0
3.893884749E0,7.798795223E0,1.170591593E0,-3.183274031E0,8.504394462E0
3.896393447E0,7.577220440E0,1.279248476E0,-3.324954033E0,8.372936497E0
3.898902145E0,7.342862129E0,1.421993852E0,-3.447459459E0,8.235573294E0
3.901410843E0,7.096786499E0,1.599892855E0,-3.540137291E0,8.090525805E0
3.903919541E0,6.838992596E0,1.810814977E0,-3.607249022E0,7.941228879E0
3.906428239E0,6.568415642E0,2.034520388E0,-3.656251192E0,7.787909221E0
3.908936937E0,6.272272110E0,2.264617443E0,-3.689274311E0,7.621065183E0
3.911445635E0,5.942040443E0,2.473408937E0,-3.693535328E0,7.420768129E0
3.913954333E0,5.590503693E0,2.663025856E0,-3.658381701E0,7.192301086E0
3.916463031E0,5.240031719E0,2.863295555E0,-3.588074207E0,6.966395795E0
3.918971728E0,4.917256832E0,3.088066101E0,-3.507114172E0,6.783466430E0
3.921480426E0,4.627505302E0,3.333076715E0,-3.426154137E0,6.652949563E0
3.923989124E0,4.370776653E0,3.572761059E0,-3.349455118E0,6.564081027E0
3.926497822E0,4.140679836E0,3.782618046E0,-3.278082609E0,6.496095318E0
3.929006520E0,3.929757595E0,3.958386421E0,-3.206709862E0,6.433879541E0
3.931515218E0,3.724161625E0,4.059586525E0,-3.134271860E0,6.338239713E0
3.934023916E0,3.526022673E0,4.028694153E0,-3.050116062E0,6.161689740E0
3.936532614E0,3.358776331E0,3.905123234E0,-2.956372976E0,5.938981991E0
3.939041312E0,3.221357346E0,3.801792860E0,-2.866890669E0,5.748898521E0
3.941550010E0,3.071155071E0,3.753855944E0,-2.792322397E0,5.596471414E0
3.944058708E0,2.873016119E0,3.703788519E0,-2.717753887E0,5.418344508E0
3.946567406E0,2.623744249E0,3.611110687E0,-2.633598089E0,5.182662750E0
3.949076103E0,2.333992720E0,3.464104176E0,-2.531332731E0,4.884177019E0
3.951584801E0,2.006956816E0,3.251051426E0,-2.417349577E0,4.521149191E0
3.954093499E0,1.642636538E0,2.976213455E0,-2.298039913E0,4.103302178E0
3.956602197E0,1.237836361E0,2.690722704E0,-2.177665234E0,3.676200946E0
3.959110895E0,7.957519293E-1,2.432929039E0,-2.063682079E0,3.288031108E0
3.961619593E0,3.089264631E-1,2.212419510E0,-1.960351467E0,2.972072261E0
3.964128291E0,-2.215748429E-1,2.013215065E0,-1.864477634E0,2.752890691E0
3.966636989E0,-7.925561666E-1,1.821467638E0,-1.774995565E0,2.663925466E0
3.969145687E0,-1.386973262E0,1.625459194E0,-1.692970276E0,2.726162280E0
3.971654385E0,-2.000565052E0,1.411341190E0,-1.617336512E0,2.934266838E0
3.974163083E0,-2.630136013E0,1.168461084E0,-1.553420663E0,3.270478942E0
3.976671781E0,-3.273555279E0,8.936230540E-1,-1.499092221E0,3.709717484E0
3.979180478E0,-3.925496578E0,5.857618451E-1,-1.453285933E0,4.226663025E0
3.981689176E0,-4.579568386E0,2.533995807E-1,-1.412805915E0,4.799237284E0
3.984197874E0,-5.228313923E0,-1.066595241E-1,-1.372325897E0,5.406470299E0
3.986706572E0,-5.866406918E0,-4.848281145E-1,-1.326519608E0,6.034023757E0
3.989215270E0,-6.490651131E0,-8.672577739E-1,-1.276452184E0,6.671582895E0
3.991723968E0,-7.094655991E0,-1.236904263E0,-1.219993234E0,7.304276780E0
3.994232666E0,-7.677355289E0,-1.573527575E0,-1.152881622E0,7.921294673E0
3.996741364E0,-8.234487534E0,-1.883519292E0,-1.082574129E0,8.516243104E0
3.999250062E0,-8.761793137E0,-2.180727720E0,-1.011201501E0,9.085544609E0
4.001758760E0,-9.252880096E0,-2.474740505E0,-9.355677962E-1,9.623690443E0
4.004267458E0,-9.706682205E0,-2.770883799E0,-8.588688374E-1,1.013089987E1
4.006776156E0,-1.012639618E1,-3.030808210E0,-7.843003273E-1,1.059928417E1
4.009284853E0,-1.052160931E1,-3.251317739E0,-7.214497924E-1,1.103611432E1
4.011793551E0,-1.089019012E1,-3.486741066E0,-6.649908423E-1,1.145407425E1
4.014302249E0,-1.123320484E1,-3.689141035E0,-6.234455705E-1,1.183990443E1
4.016810947E0,-1.155917549E1,-3.869170666E0,-6.074665785E-1,1.220467268E1
4.019319593E0,-1.188408089E1,-4.073701382E0,-6.117276549E-1,1.257778328E1
4.021828239E0,-1.220259476E1,-4.300602436E0,-6.383592486E-1,1.295399562E1
4.024336885E0,-1.251684761E1,-4.511524677E0,-6.884266138E-1,1.332288483E1
4.026845531E0,-1.282364368E1,-4.674510002E0,-7.566034794E-1,1.367001573E1
4.029354176E0,-1.312085247E1,-4.775710106E0,-8.354330063E-1,1.398792783E1
4.031862822E0,-1.340101624E1,-4.827908039E0,-9.185235500E-1,1.427373874E1
4.034371468E0,-1.364389706E1,-4.837495327E0,-1.001614094E0,1.451070359E1
4.036880114E0,-1.385162354E1,-4.827908039E0,-1.079378366E0,1.470854270E1
4.039388760E0,-1.402845669E1,-4.830038548E0,-1.145424724E0,1.488082213E1
4.041897406E0,-1.415415764E1,-4.777840614E0,-1.194426894E0,1.498648041E1
4.044406051E0,-1.419144249E1,-4.607398510E0,-1.214666843E0,1.496998920E1
4.046914697E0,-1.411687374E1,-4.318711758E0,-1.209340572E0,1.481215380E1
4.049423343E0,-1.391127777E1,-3.972501278E0,-1.178447962E0,1.451527317E1
4.051931989E0,-1.358317661E1,-3.626290560E0,-1.128380537E0,1.410410978E1
4.054440635E0,-1.311126518E1,-3.248121977E0,-1.055942535E0,1.354882230E1
4.056949281E0,-1.250299931E1,-2.856105089E0,-9.632646441E-1,1.286118994E1
4.059457926E0,-1.177222824E1,-2.482197523E0,-8.588688374E-1,1.206168802E1
4.061966572E0,-1.091256046E1,-2.159422636E0,-7.438203096E-1,1.114900671E1
4.064475218E0,-9.887777328E0,-1.823864460E0,-6.170539856E-1,1.007349878E1
4.066983864E0,-8.746879578E0,-1.509611726E0,-4.913528562E-1,8.889783886E0
4.069492510E0,-7.546327591E0,-1.245426297E0,-3.731085956E-1,7.657503300E0
4.072001156E0,-6.327665806E0,-1.032373667E0,-2.612559199E-1,6.416650574E0
4.074509801E0,-5.106873989E0,-8.629966974E-1,-1.494032294E-1,5.181432868E0
4.077018447E0,-3.903126001E0,-7.383608818E-1,-3.115896136E-2,3.972472814E0
4.079527093E0,-2.723879099E0,-6.701840162E-1,9.454214573E-2,2.806706643E0
4.082035739E0,-1.577655435E0,-6.552702785E-1,2.340916842E-1,1.724289629E0
4.084544385E0,-4.697812796E-1,-6.787061095E-1,3.885549009E-1,9.123109912E-1
4.087053031E0,5.965476632E-1,-7.234471440E-1,5.515402555E-1,1.087860992E0
4.089561676E0,1.624527097E0,-7.692534924E-1,7.209171653E-1,1.936636461E0
4.092070322E0,2.616287470E0,-7.948198318E-1,8.892288208E-1,2.875313302E0
4.094578968E0,3.568633080E0,-7.948198318E-1,1.050083637E0,3.803886994E0
4.097087614E0,4.470911503E0,-7.767103314E-1,1.191763639E0,4.691761842E0
4.099596260E0,5.310339451E0,-7.340998054E-1,1.299355268E0,5.516061251E0
4.102104906E0,6.077329159E0,-6.574008465E-1,1.371793270E0,6.264816227E0
4.104613551E0,6.765489578E0,-5.253081322E-1,1.411208034E0,6.931039315E0
4.107122197E0,7.372689724E0,-3.442133069E-1,1.420795441E0,7.516228858E0
4.109630843E0,7.884016037E0,-1.492700726E-1,1.405881643E0,8.009774880E0
4.112139489E0,8.298403740E0,2.543316968E-2,1.370728016E0,8.410888584E0
4.114648135E0,8.621178627E0,2.565953732E-1,1.330247998E0,8.726976672E0
4.117156781E0,8.865123749E0,5.740439296E-1,1.297224760E0,8.977902739E0
4.119665426E0,9.041957855E0,9.234504104E-1,1.264201641E0,9.176489977E0
4.122174072E0,9.158071518E0,1.271791577E0,1.210938454E0,9.324918213E0
4.124682718E0,9.225183487E0,1.605219126E0,1.131043673E0,9.431860824E0
4.127191364E0,9.236901283E0,1.850229740E0,1.018125772E0,9.475245406E0
4.129700062E0,9.202812195E0,1.958886623E0,8.700540662E-1,9.449126053E0
4.132208760E0,9.142092705E0,1.968474030E0,6.985466480E-1,9.377671164E0
4.134717458E0,9.095220566E0,1.983387709E0,5.270391703E-1,9.323874422E0
4.137226156E0,9.071784973E0,2.048368931E0,3.587275445E-1,9.307082428E0
4.139734853E0,9.071784973E0,2.138916254E0,1.861548275E-1,9.322386978E0
4.142243551E0,9.090959549E0,2.217745781E0,-3.462106921E-3,9.357561320E0
4.144752249E0,9.125048637E0,2.247573137E0,-2.165148407E-1,9.400264694E0
4.147260947E0,9.167658806E0,2.201766729E0,-4.604602158E-1,9.439585177E0
4.149769645E0,9.209203720E0,2.088848829E0,-7.225150466E-1,9.470731259E0
4.152278343E0,9.241162300E0,1.949299335E0,-9.824393988E-1,9.495474487E0
4.154787041E0,9.262467384E0,1.805488706E0,-1.226384759E0,9.516150014E0
4.157295739E0,9.274185181E0,1.663808703E0,-1.444763780E0,9.532371822E0
4.159804437E0,9.276315689E0,1.527454853E0,-1.632250190E0,9.541875695E0
4.162313135E0,9.259271622E0,1.399623275E0,-1.788843989E0,9.533783042E0
4.164821833E0,9.225183487E0,1.272856951E0,-1.917740822E0,9.507991641E0
4.167330531E0,9.171919823E0,1.137568355E0,-2.017875671E0,9.459915286E0
4.169839228E0,9.099481583E0,9.958883524E-1,-2.094574690E0,9.390399449E0
