"Time (s)","Linear Acceleration x (m/s^2)","Linear Acceleration y (m/s^2)","Linear Acceleration z (m/s^2)","Absolute acceleration (m/s^2)"
0.000000000E0,4.523938000E-1,4.449741840E-1,4.937391281E-1,8.040152370E-1
0.000000000E0,3.432213366E-1,4.889637232E-1,6.838188171E-1,9.080168408E-1
0.000000000E0,2.528300881E-1,4.592041969E-1,9.260568619E-1,1.064130095E0
0.000000000E0,2.025093436E-1,4.087767601E-1,1.095916748E0,1.187072867E0
3.503506000E-3,-3.135722876E-2,3.285768032E-1,1.045157433E0,1.096038343E0
8.520485000E-3,-1.069803357E0,1.044011116E-1,1.118347168E0,1.551154152E0
1.353746400E-2,-8.978807926E-1,3.761714697E-2,1.257965088E0,1.545988722E0
1.855444300E-2,-3.165228963E-1,1.325396895E-1,1.057521820E0,1.111803001E0
2.357152600E-2,1.347144842E-1,2.746240497E-1,4.697751999E-1,5.605846050E-1
2.858871400E-2,2.278519869E-1,4.165076017E-1,8.358573914E-2,4.820598366E-1
3.360605800E-2,1.686532199E-1,3.571102619E-1,1.809310913E-1,4.344050041E-1
3.862355800E-2,6.454214454E-2,2.491575480E-1,2.781848907E-1,3.789881338E-1
4.364116200E-2,-8.334171772E-2,1.154389381E-1,5.858478546E-1,6.029010691E-1
4.865887000E-2,-3.760931492E-1,1.090902090E0,1.653905869E0,2.016660122E0
5.367668300E-2,-6.648187637E-1,1.938633561E0,1.315350533E0,2.435247646E0
5.869454700E-2,-7.446407080E-1,2.170450687E0,1.437362671E0,2.707647949E0
6.371246400E-2,-5.463574529E-1,2.149102688E0,1.866425514E0,2.898394906E0
6.873043300E-2,-9.232464433E-2,1.601364613E0,2.071326256E0,2.619787190E0
7.374840100E-2,3.294277191E-1,6.043158174E-1,2.191017151E0,2.296579279E0
7.876637000E-2,6.284313202E-1,-5.248642564E-1,2.306806564E0,2.447808190E0
8.378413100E-2,8.190701604E-1,-1.512708902E0,2.624246597E0,3.137807253E0
8.880152600E-2,1.024065495E0,-2.187606573E0,3.358319283E0,4.136742808E0
9.381892200E-2,1.130376220E0,-2.676186562E0,4.221794128E0,5.124770295E0
9.883631800E-2,9.955078959E-1,-3.018636227E0,4.980565071E0,5.908403259E0
1.038537140E-1,7.306262255E-1,-3.188248873E0,5.620977402E0,6.503393922E0
1.088711100E-1,3.888422251E-1,-3.186461687E0,5.986102104E0,6.792507251E0
1.138885060E-1,1.821053028E-2,-3.095093250E0,5.986283302E0,6.739103919E0
1.189059010E-1,-3.192362785E-1,-2.961059570E0,5.488951683E0,6.244867986E0
1.239232970E-1,-6.156856418E-1,-2.853612900E0,4.495546341E0,5.360234351E0
1.289406930E-1,-8.501695991E-1,-2.754834652E0,3.174696922E0,4.288426618E0
1.339580890E-1,-1.049839020E0,-2.684695721E0,1.632349014E0,3.312750577E0
1.389754850E-1,-1.328346372E0,-2.590998173E0,-2.795581818E-1,2.925051861E0
1.439928810E-1,-1.622618318E0,-2.473439455E0,-2.317322254E0,3.757762016E0
1.490102760E-1,-1.914702654E0,-2.437795162E0,-4.041854382E0,5.093674346E0
1.540276720E-1,-2.353562593E0,-2.460625172E0,-6.148453712E0,7.028329543E0
1.590450680E-1,-2.974837303E0,-2.388470411E0,-8.356525421E0,9.186183375E0
1.640624640E-1,-3.608075619E0,-2.283472538E0,-1.056790352E1,1.139794022E1
1.690798600E-1,-4.095288277E0,-2.140823841E0,-1.236449814E1,1.319982299E1
1.740972560E-1,-4.258356571E0,-2.076270580E0,-1.398859978E1,1.476906984E1
1.791146510E-1,-4.115898132E0,-2.033271790E0,-1.535699081E1,1.602847399E1
1.841320470E-1,-3.703536034E0,-1.894068122E0,-1.609450531E1,1.662338035E1
1.891494430E-1,-3.011464357E0,-1.651825547E0,-1.635693169E1,1.671366685E1
1.941668390E-1,-2.092656136E0,-1.353216171E0,-1.629437828E1,1.648384565E1
1.991842350E-1,-1.183172703E0,-9.358279705E-1,-1.584541893E1,1.591706546E1
2.042016310E-1,-1.036088467E-1,-7.160079479E-1,-1.522039032E1,1.523757473E1
2.092190260E-1,1.275346994E0,-5.751562119E-1,-1.436062431E1,1.442861204E1
2.142364220E-1,2.612826109E0,-5.011363029E-1,-1.321612644E1,1.348124608E1
2.192538180E-1,4.099160194E0,-5.352957249E-1,-1.132511711E1,1.205603307E1
2.242712140E-1,6.457676888E0,-1.439461708E-1,-3.773531437E0,7.480765388E0
2.292886100E-1,1.012489891E1,8.132421970E-1,1.757101822E1,2.029570452E1
2.343060060E-1,1.229296303E1,1.604089022E0,3.832690430E1,4.028202620E1
2.393234010E-1,7.877300262E0,2.869405270E0,2.448455048E1,2.588008033E1
2.443407970E-1,3.479623318E0,4.558350086E0,1.186952686E1,1.318226088E1
2.493581930E-1,1.022733569E0,4.296386242E0,6.400661469E0,7.776463587E0
2.543755890E-1,-1.752948761E-1,2.930251598E0,3.492259026E0,4.562124048E0
2.593929850E-1,-1.087618709E0,1.919100404E0,2.153186798E0,3.082543463E0
2.644103810E-1,-1.867040873E0,1.547039390E0,2.414121628E0,3.421572113E0
2.694277760E-1,-2.473169327E0,1.537655830E0,3.895761490E0,4.863939716E0
2.744451720E-1,-2.658992290E0,1.272392631E0,5.861031532E0,6.560557418E0
2.794625680E-1,-2.438405037E0,5.978407860E-1,7.635582924E0,8.037745910E0
2.844799640E-1,-1.843978286E0,-1.444567442E-1,8.822752953E0,9.014548981E0
2.894973600E-1,-1.220126629E0,-6.305829287E-1,9.552115440E0,9.650349901E0
2.945147560E-1,-5.102176666E-1,-9.860079288E-1,1.000569344E1,1.006709664E1
2.995321510E-1,3.441494703E-2,-1.172941446E0,1.018846130E1,1.025581395E1
3.045495470E-1,3.087520003E-1,-1.153451443E0,1.008652210E1,1.015695359E1
3.095669430E-1,3.506172895E-1,-9.516558647E-1,9.710083008E0,9.762903942E0
3.145843910E-1,2.598026991E-1,-7.247748375E-1,8.949792862E0,8.982849675E0
3.196018390E-1,1.884629726E-1,-6.143472195E-1,7.882838249E0,7.908987272E0
3.246192870E-1,1.495508552E-1,-5.891274214E-1,6.543228149E0,6.571397963E0
3.296367350E-1,1.847772598E-1,-6.032710075E-1,5.165676117E0,5.204064593E0
3.346541830E-1,2.541559041E-1,-6.640037298E-1,3.798108101E0,3.864080916E0
3.396716310E-1,2.788187861E-1,-8.363349438E-1,2.383182526E0,2.541014562E0
3.446890780E-1,2.175048888E-1,-1.113807559E0,8.636121750E-1,1.426079116E0
3.497065260E-1,1.002632082E-2,-1.370213032E0,-7.128267288E-1,1.544573153E0
3.547239740E-1,-2.742937207E-1,-1.570287466E0,-2.360773563E0,2.848559564E0
3.597414220E-1,-6.141568422E-1,-1.697672844E0,-4.066403866E0,4.449148470E0
3.647588700E-1,-9.403248429E-1,-1.740317225E0,-5.816241741E0,6.143417847E0
3.697763180E-1,-1.240369678E0,-1.700245857E0,-7.549277782E0,7.837151775E0
3.747937660E-1,-1.515579343E0,-1.588767767E0,-9.085268021E0,9.346831483E0
3.798112140E-1,-1.732431412E0,-1.508796811E0,-1.044968605E1,1.069923946E1
3.848286620E-1,-1.842932701E0,-1.553500295E0,-1.167282009E1,1.191908105E1
3.898461100E-1,-1.841465712E0,-1.648868680E0,-1.266524601E1,1.290419391E1
3.948635580E-1,-1.702147007E0,-1.802256703E0,-1.335199356E1,1.358017547E1
3.998810060E-1,-1.456283569E0,-1.930438280E0,-1.382541084E1,1.403528905E1
4.048984530E-1,-1.134160638E0,-1.955549240E0,-1.397183323E1,1.415353726E1
4.099159010E-1,-7.945191860E-1,-1.953408241E0,-1.388307095E1,1.404231902E1
4.149333490E-1,-4.678512812E-1,-1.971578002E0,-1.369829941E1,1.384736117E1
4.199507970E-1,-1.379345804E-1,-2.072003126E0,-1.341282463E1,1.357262272E1
4.249682450E-1,1.770391166E-1,-2.163930416E0,-1.295941353E1,1.314002803E1
4.299856930E-1,4.677818716E-1,-2.233570099E0,-1.242360878E1,1.263145718E1
4.350031410E-1,7.423005700E-1,-2.281685114E0,-1.174226189E1,1.198489930E1
4.400205890E-1,9.496043921E-1,-2.290306568E0,-1.078496742E1,1.106629003E1
4.450380370E-1,1.129266739E0,-2.289969921E0,-9.406776428E0,9.747135393E0
4.500554850E-1,1.298307061E0,-2.254347086E0,-7.649314404E0,8.079584943E0
4.550729330E-1,1.428705454E0,-2.076177835E0,-5.611712933E0,6.151669344E0
4.600903810E-1,1.481675148E0,-1.792073369E0,-3.431263924E0,4.144931883E0
4.651078280E-1,1.494413972E0,-1.516085863E0,-9.867782593E-1,2.346384623E0
4.701252760E-1,1.529890537E0,-1.267020941E0,1.813720703E0,2.689886598E0
4.751427240E-1,1.562472939E0,-8.749048710E-1,1.111077023E1,1.125415458E1
4.801601720E-1,1.384292603E0,-1.142802119E0,3.731275940E1,3.735591354E1
4.851776200E-1,2.110521555E0,-1.175117135E0,3.927754211E1,3.935175366E1
4.901950680E-1,4.121884823E0,3.176270723E-1,2.119617844E1,2.159557366E1
4.952125160E-1,2.906835556E0,1.655961156E0,1.272355461E1,1.315601544E1
5.002299640E-1,9.833528996E-1,1.822647691E0,9.364208221E0,9.590486074E0
5.052474120E-1,1.924171448E-1,1.406163216E0,7.427609444E0,7.561990571E0
5.102648600E-1,-2.593543530E-1,8.473346233E-1,6.925427437E0,6.981889846E0
5.152823080E-1,-5.391507745E-1,3.435537815E-1,7.290986061E0,7.318961026E0
5.202997560E-1,-5.504837632E-1,-1.441159248E-1,7.513845444E0,7.535361645E0
5.253172030E-1,-3.004527688E-1,-5.107907057E-1,7.221141815E0,7.245417043E0
5.303346510E-1,6.708478928E-2,-6.605546474E-1,6.566679955E0,6.600160486E0
5.353520990E-1,3.883048296E-1,-5.972031355E-1,5.627498627E0,5.672404518E0
5.403695470E-1,4.756202698E-1,-3.670288324E-1,4.623886108E0,4.662751071E0
5.453869950E-1,3.712593913E-1,-6.884109974E-2,3.627543449E0,3.647141910E0
5.504044430E-1,1.309249997E-1,2.319862843E-1,2.619234085E0,2.632744990E0
5.554218910E-1,-1.224314570E-1,4.461514950E-1,1.704004288E0,1.765692847E0
5.604393390E-1,-3.320571780E-1,5.030465126E-1,8.815526962E-1,1.067919903E0
5.654567870E-1,-4.216490984E-1,4.324553013E-1,1.419782639E-1,6.204541701E-1
5.704742350E-1,-4.202733040E-1,2.347571850E-1,-5.579490662E-1,7.369177338E-1
5.754916830E-1,-3.381616175E-1,-3.913640976E-3,-1.246973038E0,1.292017938E0
5.805091310E-1,-2.481653243E-1,-2.549703121E-1,-2.006388187E0,2.037692186E0
5.855265260E-1,-1.946466863E-1,-4.513571262E-1,-2.840946198E0,2.883155543E0
5.905439220E-1,-2.315209210E-1,-6.025111675E-1,-3.669362068E0,3.725699885E0
5.955613180E-1,-3.310081959E-1,-7.225453854E-1,-4.544418335E0,4.613390972E0
6.005787140E-1,-4.749770164E-1,-8.347227573E-1,-5.533310890E0,5.616039054E0
6.055961100E-1,-7.028459311E-1,-9.572550058E-1,-6.583690166E0,6.689940639E0
6.106135060E-1,-9.779509306E-1,-1.093695760E0,-7.705543995E0,7.843976459E0
6.156309010E-1,-1.258473754E0,-1.199489594E0,-8.727227211E0,8.898709247E0
6.206482970E-1,-1.502091885E0,-1.248886347E0,-9.730899811E0,9.925039459E0
6.256656930E-1,-1.665747643E0,-1.277955770E0,-1.055482864E1,1.076161205E1
6.306830890E-1,-1.753268003E0,-1.279834151E0,-1.111870861E1,1.132861886E1
6.357004850E-1,-1.786651373E0,-1.314910412E0,-1.145219994E1,1.166507591E1
6.407178810E-1,-1.754043698E0,-1.410596251E0,-1.154163742E1,1.175907502E1
6.457352760E-1,-1.648868561E0,-1.613962054E0,-1.141615295E1,1.164698198E1
6.507526720E-1,-1.522384763E0,-1.809837461E0,-1.108070469E1,1.133027729E1
6.557700680E-1,-1.354895353E0,-1.970034838E0,-1.035815620E1,1.063053050E1
6.607874640E-1,-1.116295338E0,-2.148658037E0,-9.401250839E0,9.708056653E0
6.658048600E-1,-8.996638060E-1,-2.318188429E0,-8.477457047E0,8.834629055E0
6.708222560E-1,-7.078840733E-1,-2.469925404E0,-7.753575802E0,8.168204765E0
6.758396510E-1,-5.700448751E-1,-2.561610222E0,-7.118724823E0,7.587031119E0
6.808570470E-1,-5.025789738E-1,-2.546260118E0,-6.423769951E0,6.928264328E0
6.858744430E-1,-4.983906150E-1,-2.458482742E0,-5.581818104E0,6.119577105E0
6.908918390E-1,8.066701889E-2,-2.060633659E0,-3.444267273E0,4.014435862E0
6.959092350E-1,5.099389076E0,-2.078795433E-2,1.425226116E1,1.513707863E1
7.009266310E-1,6.579694271E0,9.017899036E-1,2.454622650E1,2.542877970E1
7.059440260E-1,3.026743174E0,7.049183846E-1,1.329321194E1,1.365165073E1
7.109614220E-1,4.134011269E-2,1.316501617E0,9.809047699E0,9.897085544E0
7.159788180E-1,-1.292348504E0,1.710812688E0,1.076418018E1,1.097563755E1
7.209962140E-1,-1.993633509E0,1.838994741E0,7.793713570E0,8.252178345E0
7.260136100E-1,-1.156183720E0,1.863155723E0,6.526429176E0,6.884939203E0
7.310310060E-1,-3.705083132E-1,1.559954286E0,6.926153183E0,7.109313026E0
7.360484010E-1,5.064490438E-1,1.163883328E0,7.641848564E0,7.746545328E0
7.410657970E-1,1.515895247E0,9.658193588E-1,8.013029099E0,8.212148365E0
7.460831930E-1,2.287147045E0,1.094536901E0,8.035109520E0,8.425677280E0
7.511005890E-1,2.657213688E0,1.477979660E0,7.846772194E0,8.415286229E0
7.561179850E-1,2.640240431E0,1.867412210E0,7.514750481E0,8.181049607E0
7.611353810E-1,2.230048656E0,1.932947278E0,7.134548187E0,7.720827678E0
7.661527760E-1,1.548392773E0,1.842266560E0,6.959571838E0,7.363905650E0
7.711701720E-1,1.040717840E0,1.604555130E0,6.764962196E0,7.030106991E0
7.761875680E-1,8.303890824E-1,1.238332868E0,6.594159126E0,6.760617494E0
7.812049640E-1,8.538557291E-1,8.619098663E-1,6.552894592E0,6.664261832E0
7.862223600E-1,9.659360051E-1,6.027463675E-1,6.436025620E0,6.535959098E0
7.912397560E-1,1.015946984E0,4.447588921E-1,6.129593849E0,6.229115467E0
7.962571510E-1,1.005426168E0,3.386769295E-1,5.629768372E0,5.728863392E0
8.012745470E-1,8.972341418E-1,2.358288765E-1,4.966063499E0,5.051972985E0
8.062919950E-1,7.408664227E-1,1.312255859E-1,4.225138664E0,4.291608084E0
8.113094430E-1,5.725261569E-1,-1.317846775E-2,3.474236488E0,3.521119005E0
8.163268910E-1,4.529137313E-1,-1.969144344E-1,2.727818489E0,2.772165192E0
8.213443390E-1,3.520081937E-1,-3.908264637E-1,1.923785210E0,1.994393298E0
8.263617870E-1,2.252595425E-1,-6.469887495E-1,1.062251091E0,1.264006995E0
8.313792350E-1,5.221917480E-2,-9.980701208E-1,1.671733856E-1,1.013320161E0
8.363966830E-1,-1.873011738E-1,-1.404917002E0,-8.331985474E-1,1.644108674E0
8.414141310E-1,-4.558876455E-1,-1.808787823E0,-1.948490143E0,2.697435962E0
8.464315780E-1,-8.017629981E-1,-2.179369926E0,-3.150167942E0,3.913570652E0
8.514490260E-1,-1.215806484E0,-2.509969711E0,-4.457702637E0,5.258255049E0
8.564664740E-1,-1.664795637E0,-2.774550915E0,-5.818937778E0,6.658056335E0
8.614839220E-1,-2.144387007E0,-2.961192131E0,-7.392386436E0,8.247086255E0
8.665013700E-1,-2.636718273E0,-3.091002226E0,-9.021012306E0,9.893697036E0
8.715188180E-1,-3.114346981E0,-3.170213461E0,-1.065826225E1,1.154763893E1
8.765362660E-1,-3.564067841E0,-3.195240259E0,-1.218131733E1,1.308803392E1
8.815537140E-1,-3.924354315E0,-3.133891106E0,-1.341972351E1,1.432867089E1
8.865711620E-1,-4.117469311E0,-3.035722733E0,-1.426523590E1,1.515473924E1
8.915886100E-1,-4.154706955E0,-2.969990492E0,-1.471467781E1,1.557575605E1
8.966060580E-1,-4.022850513E0,-3.006565332E0,-1.485068512E1,1.567691328E1
9.016235060E-1,-3.718405962E0,-3.105875492E0,-1.470291138E1,1.548058812E1
9.066409530E-1,-3.276347637E0,-3.204982281E0,-1.433420372E1,1.504911165E1
9.116584010E-1,-2.727652550E0,-3.341955423E0,-1.377833748E1,1.443784396E1
9.166758490E-1,-2.123100042E0,-3.492910862E0,-1.310706043E1,1.372963995E1
9.216932970E-1,-1.485740662E0,-3.591454268E0,-1.233904648E1,1.293669344E1
9.267107450E-1,-8.587563634E-1,-3.528318882E0,-1.141618538E1,1.197980740E1
9.317281930E-1,-2.050889134E-1,-3.386330128E0,-1.025607204E1,1.080260649E1
9.367456410E-1,4.835098386E-1,-3.243658066E0,-8.957934380E0,9.539375648E0
9.417630890E-1,1.215790510E0,-3.101922989E0,-7.601700306E0,8.299754233E0
9.467805370E-1,1.933367491E0,-2.919780254E0,-6.200208664E0,7.120787461E0
9.517979850E-1,2.582087755E0,-2.497874022E0,-4.364603043E0,5.652991378E0
9.568154330E-1,7.204916477E0,1.439206600E-1,1.262161541E1,1.453398466E1
9.618328810E-1,1.437189770E1,2.728959560E0,4.769620895E1,4.988914724E1
9.668503280E-1,1.288848495E1,3.329857111E0,3.416102600E1,3.666301529E1
9.718677760E-1,7.048595428E0,4.090942860E0,1.224556065E1,1.470959777E1
9.768852240E-1,1.982226849E0,4.107854366E0,5.566743851E0,7.196688674E0
9.819026720E-1,-9.274725914E-1,3.069889069E0,3.088219643E0,4.452137112E0
9.869201200E-1,-2.084717751E0,2.214159489E0,3.583565712E0,4.700052505E0
9.919375680E-1,-1.987034202E0,1.803740740E0,5.647279739E0,6.252483829E0
9.969550160E-1,-1.553863764E0,1.437239408E0,8.473772049E0,8.734126313E0
1.001972464E0,-7.614624500E-1,9.561924934E-1,1.073246002E1,1.080184370E1
1.006989912E0,6.476128101E-1,5.910474062E-1,1.138154984E1,1.141527118E1
1.012007360E0,2.047110319E0,4.017623663E-1,1.090139771E1,1.109921374E1
1.017024808E0,2.543311119E0,3.444209099E-1,1.021642017E1,1.053386436E1
1.022042256E0,2.405528545E0,4.810252190E-1,9.470376015E0,9.782943049E0
1.027059703E0,1.996889353E0,7.254778147E-1,8.859702110E0,9.110883965E0
1.032077151E0,1.449193478E0,8.767888546E-1,8.375212669E0,8.544770780E0
1.037094599E0,9.750289917E-1,9.923971891E-1,7.759137154E0,7.882876574E0
1.042112047E0,6.093541384E-1,9.815696478E-1,6.945332527E0,7.040769514E0
1.047129495E0,3.822872043E-1,8.641537428E-1,5.963253021E0,6.037656151E0
1.052146943E0,2.430012226E-1,6.411236525E-1,4.913887024E0,4.961489173E0
1.057164391E0,1.460971534E-1,3.277399540E-1,3.854952812E0,3.871617109E0
1.062181839E0,8.173733950E-3,-5.123996735E-2,2.800977707E0,2.801458274E0
1.067199287E0,-1.581057459E-1,-4.471673965E-1,1.709001541E0,1.773595888E0
1.072216735E0,-3.879821897E-1,-8.545482159E-1,5.695505142E-1,1.097802633E0
1.077234183E0,-7.019121051E-1,-1.267793417E0,-5.790996552E-1,1.560556683E0
1.082251578E0,-1.019678235E0,-1.657061219E0,-1.804075241E0,2.653353173E0
1.087268974E0,-1.313372374E0,-1.968251705E0,-3.096068859E0,3.896742761E0
1.092286370E0,-1.593429446E0,-2.184807777E0,-4.508252144E0,5.257065704E0
1.097303766E0,-1.893729448E0,-2.261078119E0,-5.917028427E0,6.611347131E0
1.102321162E0,-2.209494114E0,-2.227735519E0,-7.232639313E0,7.883891248E0
1.107338558E0,-2.516626596E0,-2.148793936E0,-8.571254730E0,9.187879650E0
1.112355953E0,-2.781905174E0,-2.088438034E0,-9.699810982E0,1.030470295E1
1.117373349E0,-2.991193056E0,-2.077829361E0,-1.064846134E1,1.125408102E1
1.122390745E0,-3.096045017E0,-2.129183292E0,-1.135161591E1,1.195734502E1
1.127408141E0,-3.118993044E0,-2.216838121E0,-1.180579185E1,1.241044762E1
1.132425537E0,-3.014642954E0,-2.320425987E0,-1.197381878E1,1.256362945E1
1.137442933E0,-2.794412851E0,-2.429920673E0,-1.187563419E1,1.243961194E1
1.142460328E0,-2.436339140E0,-2.507071018E0,-1.166481876E1,1.217740327E1
1.147477724E0,-1.972726226E0,-2.590613127E0,-1.141796017E1,1.187319416E1
1.152495120E0,-1.460952640E0,-2.695633888E0,-1.104390430E1,1.146161625E1
1.157512516E0,-9.585769176E-1,-2.794425964E0,-1.057574558E1,1.098062297E1
1.162529912E0,-4.609108567E-1,-2.911798716E0,-1.010866737E1,1.052977524E1
1.167547308E0,-6.871873140E-2,-2.924162626E0,-9.622925758E0,1.005764135E1
1.172564703E0,2.551374435E-1,-2.789561272E0,-9.050803185E0,9.474375203E0
1.177582099E0,5.760468245E-1,-2.623849869E0,-8.396350861E0,8.815618291E0
1.182599495E0,9.256761074E-1,-2.413304806E0,-7.692352295E0,8.114998470E0
1.187616891E0,1.279008865E0,-2.110461473E0,-6.875995636E0,7.305424512E0
1.192634287E0,1.630706310E0,-1.725460410E0,-5.827095032E0,6.292173965E0
1.197651683E0,2.032572985E0,-1.297261596E0,-4.592903614E0,5.187388957E0
1.202669078E0,2.480337858E0,-7.501904964E-1,-2.928950787E0,3.910705100E0
1.207686474E0,3.895367622E0,4.720838070E-1,3.239377022E0,5.088252698E0
1.212703870E0,7.125866413E0,2.230441570E0,2.603889656E1,2.708831807E1
1.217721266E0,8.343421936E0,2.027452230E0,3.661278534E1,3.760610725E1
1.222738662E0,8.052042007E0,2.277268887E0,2.537475204E1,2.671889547E1
1.227756058E0,5.658125401E0,3.373821974E0,1.356805134E1,1.508274096E1
1.232773453E0,2.200627089E0,3.254100323E0,6.981849670E0,8.011126844E0
1.237790849E0,6.437803507E-1,2.827401161E0,2.631521225E0,3.915808272E0
1.242808245E0,-1.709290147E-1,2.619352341E0,1.520874977E0,3.033691499E0
1.247825641E0,-7.212480307E-1,2.378500462E0,2.362694740E0,3.429254963E0
1.252843037E0,-7.813093066E-1,1.921819925E0,3.532531738E0,4.096659193E0
1.257860433E0,-5.061587095E-1,1.343029499E0,4.546544075E0,4.767702581E0
1.262877828E0,1.283967495E-2,8.890075684E-1,5.136965752E0,5.213340239E0
1.267895224E0,6.434104443E-1,7.398660183E-1,5.390489578E0,5.478937545E0
1.272912620E0,1.141566873E0,8.557524681E-1,5.561303139E0,5.741391801E0
1.277930016E0,1.377036214E0,1.057986736E0,5.602244377E0,5.865211567E0
1.282947412E0,1.328305721E0,1.264063835E0,5.461553574E0,5.761147534E0
1.287964808E0,1.126300931E0,1.415732622E0,5.240584373E0,5.544057830E0
1.292982203E0,8.211021423E-1,1.503097773E0,4.997335434E0,5.282695626E0
1.297999599E0,5.302829146E-1,1.454030752E0,4.760964394E0,5.006214873E0
1.303017047E0,3.191161156E-1,1.253943920E0,4.483996391E0,4.666951263E0
1.308034495E0,1.812095642E-1,9.407546520E-1,4.147707939E0,4.256916416E0
1.313051943E0,1.344809532E-1,5.570788383E-1,3.766839027E0,3.810183489E0
1.318069391E0,1.061231792E-1,1.168413162E-1,3.313049316E0,3.316807169E0
1.323086839E0,4.228860140E-2,-3.755737543E-1,2.729351997E0,2.755395851E0
1.328104287E0,-7.293879986E-2,-9.298200607E-1,1.949198723E0,2.160847305E0
1.333121735E0,-3.131130934E-1,-1.402296185E0,1.035197258E0,1.770905916E0
1.338139183E0,-6.799637675E-1,-1.787708521E0,1.890182495E-3,1.912656805E0
1.343156631E0,-1.103555918E0,-2.104179621E0,-1.208103180E0,2.665505737E0
1.348174078E0,-1.557232022E0,-2.340521574E0,-2.489699364E0,3.755211809E0
1.353191526E0,-1.994398952E0,-2.513627052E0,-3.805164814E0,4.977471989E0
1.358208974E0,-2.386818171E0,-2.606661797E0,-5.083485126E0,6.191397882E0
1.363226422E0,-2.767983913E0,-2.650218010E0,-6.430906296E0,7.486116899E0
1.368243870E0,-3.085361481E0,-2.665070295E0,-7.824600220E0,8.823062039E0
1.373261318E0,-3.315033436E0,-2.642965794E0,-8.983736038E0,9.933892896E0
1.378278766E0,-3.389244080E0,-2.628800869E0,-9.929039001E0,1.081588577E1
1.383296214E0,-3.315648317E0,-2.600738525E0,-1.057118893E1,1.138013181E1
1.388313662E0,-3.105822563E0,-2.599652290E0,-1.094039917E1,1.166604731E1
1.393331110E0,-2.823852777E0,-2.628895521E0,-1.107135391E1,1.172433852E1
1.398348558E0,-2.471581459E0,-2.682689667E0,-1.100329590E1,1.159215508E1
1.403366006E0,-2.065600395E0,-2.760662556E0,-1.079903412E1,1.133609724E1
1.408383453E0,-1.632968426E0,-2.829333782E0,-1.048757172E1,1.098457446E1
1.413400901E0,-1.230265617E0,-2.836490393E0,-1.008324528E1,1.054661399E1
1.418418349E0,-8.142743111E-1,-2.811497927E0,-9.633621216E0,1.006847660E1
1.423435797E0,-4.094107151E-1,-2.707274199E0,-9.133405685E0,9.534990830E0
1.428453245E0,-4.040324688E-2,-2.524787426E0,-8.562778473E0,8.927337741E0
1.433470693E0,3.012962341E-1,-2.293630600E0,-7.968822479E0,8.297810100E0
1.438488141E0,6.238837838E-1,-2.033820629E0,-7.302821636E0,7.606369777E0
1.443505589E0,9.593067169E-1,-1.746163130E0,-6.568680286E0,6.864176262E0
1.448523037E0,1.324566126E0,-1.407595158E0,-5.621946812E0,5.944920984E0
1.453540485E0,1.714447021E0,-1.014324903E0,-4.399728775E0,4.829678757E0
1.458557933E0,2.057909489E0,-5.723253489E-1,-2.901449680E0,3.602909660E0
1.463575381E0,3.407206774E0,5.733439922E-1,5.645424843E0,6.618806765E0
1.468592828E0,7.014173508E0,1.927359343E0,3.175555229E1,3.257803624E1
1.473610276E0,8.395194054E0,2.173757076E0,3.470542145E1,3.577248637E1
1.478627724E0,6.351044655E0,3.154261827E0,1.482188225E1,1.643086514E1
1.483645172E0,2.996431828E0,3.463673592E0,6.376267433E0,7.850632129E0
1.488662620E0,-6.600332260E-2,2.622317076E0,3.372517586E0,4.272561076E0
1.493680068E0,-1.634855509E0,1.811455965E0,2.740736008E0,3.669572061E0
1.498697516E0,-2.198856592E0,1.430479288E0,3.601793289E0,4.455800288E0
1.503714964E0,-2.383265495E0,1.213602424E0,5.159830093E0,5.811766673E0
1.508732412E0,-2.010083914E0,9.704711437E-1,6.419436455E0,6.796426707E0
1.513749860E0,-8.235709667E-1,7.748390436E-1,6.864767075E0,6.957274730E0
1.518767308E0,3.194359541E-1,7.160278559E-1,6.793608665E0,6.838702649E0
1.523784756E0,8.016438484E-1,7.835954428E-1,6.412441254E0,6.509689509E0
1.528802203E0,8.766456842E-1,1.006110549E0,5.936960220E0,6.085085271E0
1.533819651E0,6.675460935E-1,1.168228388E0,5.410539627E0,5.575330879E0
1.538837099E0,4.308249950E-1,1.241556406E0,4.981711388E0,5.152137502E0
1.543854547E0,2.989531755E-1,1.235924244E0,4.660087585E0,4.830455262E0
1.548871995E0,2.468696237E-1,1.132092714E0,4.326184273E0,4.478665972E0
1.553889443E0,2.778348029E-1,9.107228518E-1,3.884620667E0,3.999610733E0
1.558906891E0,3.134839833E-1,5.952270031E-1,3.393238068E0,3.459282003E0
1.563924339E0,3.232611120E-1,2.235453129E-1,2.761502266E0,2.789330568E0
1.568941787E0,2.482891381E-1,-1.371151209E-1,2.018389702E0,2.038221048E0
1.573959235E0,6.815537810E-2,-4.098553658E-1,1.164092064E0,1.236016549E0
1.578976631E0,-2.136735618E-1,-6.561480761E-1,2.799930573E-1,7.447031629E-1
1.583994026E0,-5.075624585E-1,-8.415386677E-1,-7.009525299E-1,1.207121132E0
1.589011422E0,-7.763642073E-1,-1.017302632E0,-1.745398521E0,2.164269398E0
1.594028818E0,-1.001732826E0,-1.167455792E0,-2.757975578E0,3.157982105E0
1.599046214E0,-1.174392819E0,-1.290238857E0,-3.705681801E0,4.095850634E0
1.604063610E0,-1.322861671E0,-1.412501574E0,-4.617801666E0,5.006916808E0
1.609081006E0,-1.412865758E0,-1.522568226E0,-5.495012283E0,5.874484117E0
1.614098401E0,-1.481951356E0,-1.623141766E0,-6.314134598E0,6.685735915E0
1.619115797E0,-1.515010953E0,-1.721729517E0,-7.061636925E0,7.424710552E0
1.624133193E0,-1.515788078E0,-1.778177261E0,-7.637927532E0,7.987331523E0
1.629150589E0,-1.482846737E0,-1.800472498E0,-8.039151192E0,8.370692178E0
1.634167985E0,-1.419345260E0,-1.806369305E0,-8.290114403E0,8.602529154E0
1.639185381E0,-1.342920542E0,-1.814251661E0,-8.396253586E0,8.694367082E0
1.644202776E0,-1.233304381E0,-1.895720482E0,-8.410579681E0,8.709342479E0
1.649220172E0,-1.118660927E0,-2.007798195E0,-8.390664101E0,8.699764359E0
1.654237568E0,-1.042439699E0,-2.160333633E0,-8.427338600E0,8.762063559E0
1.659254964E0,-1.024634600E0,-2.281699657E0,-8.486949921E0,8.847844277E0
1.664272360E0,-1.066175342E0,-2.333462477E0,-8.531157494E0,8.908559096E0
1.669289756E0,-1.081392527E0,-2.267564297E0,-8.464271545E0,8.829221394E0
1.674307151E0,-1.003343105E0,-2.088499069E0,-8.190722466E0,8.512136057E0
1.679324547E0,-8.412257433E-1,-1.901180983E0,-7.763276100E0,8.036828086E0
1.684341943E0,-6.136596203E-1,-1.700631976E0,-7.186678886E0,7.410605958E0
1.689359339E0,-2.912521958E-1,-1.429167628E0,-6.542182446E0,6.702797856E0
1.694376735E0,8.307337761E-2,-1.124972582E0,-5.719491005E0,5.829669103E0
1.699394131E0,1.628625393E0,-8.736658096E-2,-3.756914139E-1,1.673677875E0
1.704411526E0,6.418441772E0,1.611837149E0,1.996928787E1,2.103727340E1
1.709428922E0,8.487082481E0,2.292746305E0,2.936397934E1,3.065176239E1
1.714446318E0,5.887404442E0,2.613697529E0,1.263864136E1,1.418549263E1
1.719463714E0,1.610745192E0,2.884295702E0,2.997881889E0,4.461048934E0
1.724481110E0,-1.281768322E0,2.370659113E0,6.016178131E-1,2.761321903E0
1.729498506E0,-2.664556265E0,1.501293182E0,8.713474274E-1,3.180092396E0
1.734515901E0,-3.082648516E0,1.018791199E0,3.176559448E0,4.542156680E0
1.739533297E0,-1.895952106E0,1.019034624E0,5.741041183E0,6.131282070E0
1.744550693E0,2.068316340E-1,1.271700144E0,7.116391182E0,7.232082967E0
1.749568089E0,1.933076620E0,1.529131413E0,7.099207878E0,7.514903898E0
1.754585485E0,2.393357515E0,1.674997568E0,6.719754219E0,7.327269192E0
1.759602881E0,2.039849758E0,1.671286345E0,6.198291779E0,6.735948786E0
1.764620276E0,1.424823761E0,1.614847898E0,5.654183388E0,6.050425296E0
1.769637672E0,9.176918268E-1,1.630879045E0,5.211543083E0,5.537337452E0
1.774655068E0,5.477194190E-1,1.848532200E0,4.975386620E0,5.335872925E0
1.779672464E0,3.387475014E-1,1.779394507E0,4.744696617E0,5.078694780E0
1.784689860E0,3.382624388E-1,1.528551698E0,4.624850273E0,4.882635745E0
1.789707256E0,5.029223561E-1,1.200543642E0,4.601631165E0,4.782179974E0
1.794724703E0,7.270584702E-1,8.373222351E-1,4.617899895E0,4.749181191E0
1.799742151E0,8.852913380E-1,5.142192841E-1,4.516227722E0,4.630817969E0
1.804759599E0,9.235501289E-1,1.867368221E-1,4.273379326E0,4.376024034E0
1.809777047E0,8.494195342E-1,-1.273347139E-1,3.794430733E0,3.890428287E0
1.814794495E0,6.412317753E-1,-4.094903469E-1,3.065741539E0,3.158738944E0
1.819811943E0,3.633291721E-1,-6.498904228E-1,2.154767036E0,2.279777759E0
1.824829391E0,4.103511572E-3,-8.331581354E-1,1.123866081E0,1.399015470E0
1.829846839E0,-3.662265539E-1,-9.097546339E-1,6.379699707E-2,9.827743584E-1
1.834864287E0,-6.677674055E-1,-9.400713444E-1,-9.683599472E-1,1.505778346E0
1.839881735E0,-8.826369047E-1,-1.061259389E0,-1.987315655E0,2.419657601E0
1.844899183E0,-1.045014381E0,-1.266889095E0,-2.974310398E0,3.397585228E0
1.849916631E0,-1.179050684E0,-1.497588515E0,-3.925095081E0,4.363405009E0
1.854934078E0,-1.284392238E0,-1.708219051E0,-4.869008541E0,5.317416659E0
1.859951526E0,-1.359953523E0,-1.867863894E0,-5.801993847E0,6.245119831E0
1.864968974E0,-1.438360810E0,-1.931121111E0,-6.705771923E0,7.124990361E0
1.869986422E0,-1.518217206E0,-1.933874846E0,-7.500019550E0,7.892727580E0
1.875003870E0,-1.588490129E0,-1.917221904E0,-8.152255058E0,8.523984001E0
1.880021318E0,-1.619315863E0,-1.932138562E0,-8.735167503E0,9.091671716E0
1.885038766E0,-1.628956556E0,-1.976890206E0,-9.130081177E0,9.482614441E0
1.890056214E0,-1.606547475E0,-2.060200214E0,-9.366414070E0,9.723946331E0
1.895073662E0,-1.560383677E0,-2.181643248E0,-9.502056122E0,9.873369993E0
1.900091110E0,-1.480069757E0,-2.288173199E0,-9.532589912E0,9.914464862E0
1.905108558E0,-1.422926664E0,-2.346415043E0,-9.482043266E0,9.871146253E0
1.910126006E0,-1.379777193E0,-2.375951529E0,-9.398118973E0,9.791505042E0
1.915143453E0,-1.313283086E0,-2.429799080E0,-9.218379021E0,9.623260768E0
1.920160901E0,-1.196083546E0,-2.484448195E0,-8.937736511E0,9.353407541E0
1.925178349E0,-1.010293722E0,-2.440031290E0,-8.493612289E0,8.894711677E0
1.930195797E0,-7.425710559E-1,-2.283118010E0,-7.875993729E0,8.233791158E0
1.935213245E0,-4.173557162E-1,-2.096004963E0,-7.117889404E0,7.431808136E0
1.940230693E0,-2.132409811E-2,-1.865144968E0,-6.333543777E0,6.602499318E0
1.945248141E0,4.150962830E-1,-1.620072484E0,-5.426554680E0,5.678418395E0
1.950265589E0,1.635602713E0,-7.790614367E-1,-8.907938004E-1,2.018823061E0
1.955283037E0,7.230648518E0,1.323545694E0,2.340919495E1,2.453618673E1
1.960300485E0,7.969868660E0,1.894822836E0,2.702872849E1,2.824289864E1
1.965317933E0,4.888881207E0,2.088914871E0,1.357254887E1,1.457665282E1
1.970335381E0,7.790361047E-1,2.665399313E0,4.665605545E0,5.429468284E0
1.975352828E0,-1.084404230E0,3.117905140E0,2.542783737E0,4.166895023E0
1.980370276E0,-1.699679852E0,2.728676796E0,3.042830467E0,4.426443935E0
1.985387724E0,-1.846945524E0,2.168746471E0,5.038095474E0,5.787665767E0
1.990405172E0,-1.678165913E0,1.712959528E0,7.417302132E0,7.795308980E0
1.995422620E0,-7.066602707E-1,1.505677700E0,8.425289154E0,8.587894469E0
2.000440068E0,9.181065559E-1,1.568082333E0,7.849064827E0,8.056650700E0
2.005457516E0,1.994335413E0,1.674034595E0,7.058609962E0,7.523545718E0
2.010474964E0,2.270240068E0,1.641567469E0,6.451044083E0,7.033114778E0
2.015492412E0,1.967718124E0,1.557015419E0,6.078640938E0,6.576175734E0
2.020509860E0,1.442014456E0,1.678539634E0,5.807220459E0,6.214556336E0
2.025527308E0,1.056253552E0,1.790319800E0,5.507740021E0,5.886944597E0
2.030544756E0,7.899914980E-1,1.648039699E0,5.319220543E0,5.624431402E0
2.035562203E0,6.996791363E-1,1.361217976E0,5.198841095E0,5.419447758E0
2.040579651E0,6.979209781E-1,1.039296389E0,4.984292984E0,5.139105683E0
2.045597099E0,6.437105536E-1,7.582528591E-1,4.637845039E0,4.743302361E0
2.050614547E0,4.584735036E-1,5.558164120E-1,4.188705444E0,4.250221540E0
2.055631995E0,1.838262081E-1,3.791275024E-1,3.680269241E0,3.704309845E0
2.060649443E0,-1.189679056E-1,1.803386211E-1,3.160577774E0,3.167953164E0
2.065666891E0,-3.978483677E-1,-3.564000130E-2,2.644096375E0,2.674097824E0
2.070684339E0,-6.151044369E-1,-3.597699404E-1,2.130972862E0,2.246960885E0
2.075701735E0,-7.719951868E-1,-7.730658054E-1,1.482722282E0,1.841758039E0
2.080719131E0,-8.940694928E-1,-1.213125348E0,6.996164322E-1,1.661474201E0
2.085736526E0,-1.059577584E0,-1.588731527E0,-1.942367554E-1,1.919505259E0
2.090753922E0,-1.289731026E0,-1.904128790E0,-1.189212799E0,2.589080850E0
2.095771318E0,-1.562508106E0,-2.182384968E0,-2.294950962E0,3.531435352E0
2.100788714E0,-1.831709862E0,-2.384023905E0,-3.473381996E0,4.593812522E0
2.105806110E0,-2.122644663E0,-2.540757895E0,-4.686690331E0,5.738130122E0
2.110823506E0,-2.402677059E0,-2.669616938E0,-5.906802177E0,6.913032881E0
2.115840901E0,-2.629282475E0,-2.802016258E0,-7.153525352E0,8.120181427E0
2.120858297E0,-2.793760538E0,-2.887295246E0,-8.475632668E0,9.379654626E0
2.125875693E0,-2.896410227E0,-2.884090900E0,-9.587226868E0,1.042219226E1
2.130893089E0,-2.950995207E0,-2.808749914E0,-1.048965645E1,1.125301476E1
2.135910485E0,-2.898242712E0,-2.668054104E0,-1.112689686E1,1.180365016E1
2.140927881E0,-2.720956087E0,-2.512373924E0,-1.146196175E1,1.204542203E1
2.145945276E0,-2.406113625E0,-2.411987543E0,-1.151980782E1,1.201303620E1
2.150962672E0,-1.955057859E0,-2.375648737E0,-1.136337852E1,1.177252435E1
2.155980068E0,-1.431866169E0,-2.426841259E0,-1.109843731E1,1.145055064E1
2.160997464E0,-8.680409193E-1,-2.541537285E0,-1.073000717E1,1.106101084E1
2.166014860E0,-2.864623666E-1,-2.590620995E0,-1.033949661E1,1.066295306E1
2.171032256E0,2.607347965E-1,-2.555122614E0,-9.931585312E0,1.025831473E1
2.176049651E0,7.399455309E-1,-2.387579203E0,-9.448571205E0,9.773615076E0
2.181067047E0,1.145751476E0,-2.131475687E0,-8.909190178E0,9.231988122E0
2.186084443E0,1.501470566E0,-1.806251287E0,-8.279464722E0,8.606189264E0
2.191101839E0,1.815225124E0,-1.445694447E0,-7.620937824E0,7.966415003E0
2.196119235E0,2.133119583E0,-1.121984363E0,-6.741421700E0,7.159316629E0
2.201136631E0,2.440198898E0,-7.544590235E-1,-5.582789898E0,6.139325869E0
2.206154026E0,4.198970795E0,4.804015160E-1,2.211507797E0,4.770000848E0
2.211171422E0,8.614449501E0,2.433149576E0,3.421149445E1,3.536319145E1
2.216188818E0,9.901522636E0,2.806545496E0,3.610096741E1,3.753926872E1
2.221206214E0,7.546531677E0,3.936993361E0,1.167237186E1,1.444625633E1
2.226223610E0,3.252962589E0,4.169179916E0,3.091041565E0,6.125223648E0
2.231241006E0,-1.349371672E-2,3.477642536E0,6.536216736E-1,3.538559168E0
2.236258401E0,-1.267449379E0,2.517217636E0,1.026080132E0,2.999275411E0
2.241275797E0,-2.011679649E0,1.709841490E0,4.390613556E0,5.123270472E0
2.246293193E0,-2.450506449E0,1.112447381E0,7.601763725E0,8.064076684E0
2.251310589E0,-2.036056995E0,8.685613871E-1,8.216611862E0,8.509561532E0
2.256327985E0,-1.005416036E0,8.318731785E-1,7.702393532E0,7.812153385E0
2.261345381E0,1.281664968E-1,8.097947836E-1,7.017212868E0,7.064946615E0
2.266362776E0,1.134785175E0,1.031554222E0,6.271311760E0,6.456097327E0
2.271380172E0,1.340253830E0,1.353090405E0,5.880864143E0,6.181561053E0
2.276397568E0,9.843632579E-1,1.525231957E0,5.620746613E0,5.906614600E0
2.281414964E0,4.829468727E-1,1.514205933E0,5.452707291E0,5.679619185E0
2.286432360E0,7.968592644E-2,1.381570935E0,5.362498283E0,5.538183451E0
2.291449756E0,-1.063012779E-1,1.140765071E0,5.378973007E0,5.499635944E0
2.296467203E0,-1.282657683E-1,8.720639944E-1,5.296646118E0,5.369488599E0
2.301484651E0,-2.084842324E-2,5.984247923E-1,5.063340187E0,5.098623416E0
2.306502099E0,1.040312350E-1,3.576204777E-1,4.665150642E0,4.679994169E0
2.311519547E0,1.824340522E-1,1.543257236E-1,4.255486488E0,4.262190032E0
2.316536995E0,1.896818578E-1,-2.590703964E-2,3.801028252E0,3.805846312E0
2.321554443E0,1.633886546E-1,-2.212471962E-1,3.278037071E0,3.289555170E0
2.326571891E0,1.171458364E-1,-4.264588356E-1,2.648413658E0,2.685085695E0
2.331589339E0,8.834577352E-2,-6.646436453E-1,1.974464417E0,2.085201641E0
2.336606787E0,2.862326801E-2,-8.869838715E-1,1.232292175E0,1.518586081E0
2.341624235E0,-4.830351472E-2,-1.106688619E0,4.601364136E-1,1.199507585E0
2.346641683E0,-1.621446311E-1,-1.361227036E0,-2.798509598E-1,1.399123470E0
2.351659131E0,-3.043830395E-1,-1.693315029E0,-1.045083046E0,2.012998608E0
2.356676578E0,-4.578439891E-1,-2.093023062E0,-1.964691162E0,2.906953391E0
2.361694026E0,-6.771751046E-1,-2.435045481E0,-2.952623844E0,3.886643820E0
2.366711474E0,-9.447732568E-1,-2.655971527E0,-3.961339474E0,4.861994620E0
2.371728922E0,-1.266346335E0,-2.778220177E0,-4.953032017E0,5.818476308E0
2.376746370E0,-1.551500559E0,-2.747419596E0,-6.009594917E0,6.787540017E0
2.381763818E0,-1.724481702E0,-2.657331705E0,-7.074254036E0,7.751149534E0
2.386781266E0,-1.886456490E0,-2.601299763E0,-8.037846565E0,8.656353502E0
2.391798714E0,-1.999334574E0,-2.548616171E0,-8.925156593E0,9.494798752E0
2.396816162E0,-2.015118837E0,-2.482617855E0,-9.689323425E0,1.020328789E1
2.401833610E0,-1.966570020E0,-2.420256615E0,-1.027872562E1,1.074137981E1
2.406851058E0,-1.889944315E0,-2.369102955E0,-1.068475342E1,1.110623671E1
2.411868506E0,-1.777954698E0,-2.361048460E0,-1.098475361E1,1.137543338E1
2.416885953E0,-1.638065696E0,-2.332342863E0,-1.122730446E1,1.158341262E1
2.421903401E0,-1.459468603E0,-2.257860184E0,-1.136039734E1,1.167418558E1
2.426920849E0,-1.221789002E0,-2.141241074E0,-1.133201981E1,1.159708388E1
2.431938297E0,-9.046686292E-1,-1.957605958E0,-1.113312817E1,1.134007007E1
2.436955745E0,-5.213047266E-1,-1.734984517E0,-1.073058701E1,1.088243665E1
2.441973193E0,-7.479138672E-2,-1.458408356E0,-1.010551643E1,1.021048535E1
2.446990641E0,3.983902037E-1,-1.166052699E0,-9.377471924E0,9.458085078E0
2.452008089E0,8.900551796E-1,-8.484022617E-1,-8.479165077E0,8.567860003E0
2.457025537E0,1.382313728E0,-6.062958241E-1,-7.481858730E0,7.632600863E0
2.462042985E0,1.884658933E0,-4.882080555E-1,-6.351228714E0,6.642920485E0
2.467060433E0,2.425543785E0,-3.755214214E-1,-5.019314289E0,5.587288692E0
2.472077881E0,3.269870281E0,2.449512482E-3,-1.811233997E0,3.737997626E0
2.477095328E0,7.355071068E0,1.610198975E0,2.116927910E1,2.246838198E1
2.482112776E0,1.057273102E1,2.454764128E0,4.341528320E1,4.475148404E1
2.487130224E0,6.041792393E0,2.076384544E0,1.787248611E1,1.897999968E1
2.492147672E0,2.969834805E0,2.893380165E0,5.485277176E0,6.876033249E0
2.497165120E0,2.586972713E-1,3.088758469E0,2.441829681E0,3.945869403E0
2.502182568E0,-9.463848472E-1,2.473863125E0,1.588331223E0,3.088436354E0
2.507200016E0,-1.799983978E0,1.765307426E0,2.816000938E0,3.779697596E0
2.512217464E0,-2.610450745E0,1.219147086E0,5.620215416E0,6.315662596E0
2.517234912E0,-3.254570484E0,6.620780230E-1,8.698836327E0,9.311301186E0
2.522252360E0,-2.949616194E0,2.939928770E-1,9.890670776E0,1.032531045E1
2.527269808E0,-1.403231382E0,3.461730480E-1,9.155557632E0,9.268933577E0
2.532287256E0,-2.811223269E-3,5.829809904E-1,8.126879692E0,8.147763391E0
2.537304703E0,5.097690225E-1,8.030970097E-1,7.579701424E0,7.639155905E0
2.542322151E0,3.992466629E-1,9.397953749E-1,7.149825096E0,7.222368874E0
2.547339599E0,-3.190284967E-2,9.073294401E-1,6.784421921E0,6.844899218E0
2.552357047E0,-3.907010853E-1,7.777425051E-1,6.435604095E0,6.494192083E0
2.557374495E0,-5.143681169E-1,5.460325480E-1,6.203912735E0,6.249100681E0
2.562391943E0,-4.420836568E-1,2.693421841E-1,5.745077133E0,5.768352836E0
2.567409391E0,-2.476857305E-1,-2.406537533E-2,5.126612663E0,5.132648903E0
2.572426839E0,-6.329573691E-2,-2.962280512E-1,4.387240410E0,4.397685280E0
2.577444287E0,2.229205705E-2,-5.039144754E-1,3.613353729E0,3.648390317E0
2.582461735E0,-3.083947301E-2,-7.186008692E-1,2.785988808E0,2.877337644E0
2.587479131E0,-1.524423659E-1,-9.445014000E-1,1.881391525E0,2.110676584E0
2.592496526E0,-2.863206863E-1,-1.171163559E0,9.475193024E-1,1.533426374E0
2.597513922E0,-4.469516873E-1,-1.387781024E0,3.221511841E-2,1.458334596E0
2.602531318E0,-5.766693354E-1,-1.612049341E0,-9.506893158E-1,1.958331120E0
2.607548714E0,-6.752738357E-1,-1.794019699E0,-2.015706539E0,2.781649562E0
2.612566110E0,-7.281481028E-1,-1.902689457E0,-3.115292072E0,3.722293853E0
2.617583506E0,-7.684046030E-1,-1.954684973E0,-4.202122211E0,4.697772883E0
2.622600901E0,-7.528445125E-1,-1.961494207E0,-5.329597473E0,5.728773308E0
2.627618297E0,-8.107725978E-1,-1.949186802E0,-6.364611626E0,6.705591886E0
2.632635693E0,-8.798412085E-1,-1.972994924E0,-7.274633408E0,7.588617841E0
2.637653089E0,-9.114438891E-1,-2.006918907E0,-8.122850418E0,8.416599811E0
2.642670485E0,-9.529462457E-1,-2.058607340E0,-8.900673866E0,9.185203645E0
2.647687881E0,-9.988726974E-1,-2.064093113E0,-9.532577515E0,9.804502084E0
2.652705276E0,-1.053362012E0,-2.012362957E0,-1.001479530E1,1.026914316E1
2.657722672E0,-1.067682385E0,-1.940492034E0,-1.036738014E1,1.060132190E1
2.662740068E0,-1.107995868E0,-1.880970120E0,-1.058632946E1,1.080907373E1
2.667757464E0,-1.149655819E0,-1.842904091E0,-1.062433052E1,1.084409531E1
2.672774860E0,-1.139634132E0,-1.830770731E0,-1.061093616E1,1.082785545E1
2.677792256E0,-1.025497317E0,-1.762874365E0,-1.050807476E1,1.070415835E1
2.682809651E0,-8.124290109E-1,-1.577101350E0,-1.019139194E1,1.034464883E1
2.687827047E0,-4.863365293E-1,-1.335925221E0,-9.665639877E0,9.769637335E0
2.692844443E0,-1.145424098E-1,-1.169155955E0,-8.992678642E0,9.069085664E0
2.697861839E0,2.501615584E-1,-1.077732682E0,-8.205374718E0,8.279629388E0
2.702879235E0,6.504682302E-1,-9.762574434E-1,-7.374830723E0,7.467550850E0
2.707896631E0,1.081444502E0,-8.321903944E-1,-6.428502560E0,6.571735556E0
2.712914026E0,1.490801096E0,-6.274871826E-1,-5.327392578E0,5.567525461E0
2.717931422E0,1.917095661E0,-4.112539291E-1,-4.003816128E0,4.458130679E0
2.722948818E0,2.804986715E0,1.154839993E-1,-2.811708450E-1,2.821408172E0
2.727966214E0,5.589124203E0,1.289122105E0,1.702503967E1,1.796530325E1
2.732983610E0,8.597502708E0,1.592636585E0,3.957350540E1,4.052796410E1
2.738001006E0,6.228956223E0,1.724622488E0,2.279396057E1,2.369259076E1
2.743018401E0,2.932424068E0,2.544402599E0,8.151452065E0,9.028802039E0
2.748035797E0,7.464766502E-3,2.732024670E0,3.526086807E0,4.460639269E0
2.753053193E0,-1.436141372E0,2.202148676E0,1.121809006E0,2.858394003E0
2.758070589E0,-1.978433013E0,1.697953939E0,7.956304550E-1,2.725852635E0
2.763087985E0,-2.113899946E0,1.354375124E0,2.171308517E0,3.319259803E0
2.768105381E0,-2.020339966E0,9.967015982E-1,4.199412346E0,4.765527432E0
2.773122776E0,-1.663135290E0,6.115034819E-1,5.880054474E0,6.141253628E0
2.778140172E0,-7.685269117E-1,4.490814209E-1,6.525542259E0,6.585970658E0
2.783157568E0,4.742609262E-1,6.506770849E-1,6.247660637E0,6.299330721E0
2.788174964E0,1.550869465E0,1.186478853E0,5.741253853E0,6.064233172E0
2.793192360E0,1.895810843E0,1.582376003E0,5.317582130E0,5.862993457E0
2.798209756E0,1.734414697E0,1.652134180E0,5.081767082E0,5.618015519E0
2.803227203E0,1.426240683E0,1.553966999E0,4.957078934E0,5.387170637E0
2.808244651E0,1.082135081E0,1.340077639E0,5.010477066E0,5.298273760E0
2.813262099E0,8.510957360E-1,1.066915035E0,5.036367416E0,5.218013836E0
2.818279547E0,7.285678983E-1,7.527692318E-1,4.905950546E0,5.016554940E0
2.823296995E0,6.464367509E-1,4.544121027E-1,4.543230057E0,4.611432552E0
2.828314443E0,5.258628130E-1,1.327353716E-1,4.135399818E0,4.170813114E0
2.833331891E0,3.020696044E-1,-2.658728361E-1,3.663804054E0,3.685837023E0
2.838349339E0,2.037545480E-2,-6.897950172E-1,3.076311111E0,3.152764244E0
2.843366787E0,-2.644011378E-1,-1.077206492E0,2.282434464E0,2.537673909E0
2.848384235E0,-5.690314174E-1,-1.370435715E0,1.421186447E0,2.054668275E0
2.853401683E0,-9.051241875E-1,-1.573500395E0,5.212688446E-1,1.888617085E0
2.858419131E0,-1.216835976E0,-1.738085747E0,-3.743515015E-1,2.154476944E0
2.863436578E0,-1.462443471E0,-1.925079823E0,-1.395007133E0,2.791185793E0
2.868454026E0,-1.681185722E0,-2.104114532E0,-2.464315414E0,3.650552542E0
2.873471474E0,-1.859359741E0,-2.278130054E0,-3.625623703E0,4.668216193E0
2.878488922E0,-1.978778124E0,-2.387233019E0,-4.845947742E0,5.753056046E0
2.883506370E0,-2.044814348E0,-2.409523964E0,-6.073376656E0,6.846384115E0
2.888523818E0,-2.157249928E0,-2.399232149E0,-7.217988014E0,7.906288202E0
2.893541266E0,-2.266693592E0,-2.391231060E0,-8.266646385E0,8.899063337E0
2.898558714E0,-2.375659704E0,-2.339247227E0,-9.053250313E0,9.647651416E0
2.903576162E0,-2.476316929E0,-2.279001713E0,-9.703532219E0,1.027056629E1
2.908593610E0,-2.532392263E0,-2.246494770E0,-1.019480801E1,1.074215340E1
2.913611058E0,-2.484316826E0,-2.196885109E0,-1.051387405E1,1.102450370E1
2.918628506E0,-2.340141058E0,-2.148143291E0,-1.068080330E1,1.114317454E1
2.923645953E0,-2.098497152E0,-2.104392529E0,-1.064366150E1,1.105077772E1
2.928663401E0,-1.762935400E0,-2.070315361E0,-1.041245079E1,1.076165779E1
2.933680849E0,-1.323363662E0,-1.998440981E0,-1.007338905E1,1.035462335E1
2.938698297E0,-8.424808979E-1,-1.870073915E0,-9.645481110E0,9.861148835E0
2.943715745E0,-3.020108342E-1,-1.624056220E0,-9.037368774E0,9.187099842E0
2.948733193E0,2.442155778E-1,-1.367158175E0,-8.234053612E0,8.350353382E0
2.953750641E0,8.190494776E-1,-1.114994168E0,-7.373583317E0,7.502251993E0
2.958768089E0,1.378898740E0,-8.545570374E-1,-6.340315819E0,6.544557597E0
2.963785537E0,1.904644251E0,-5.921881199E-1,-5.224362373E0,5.592165833E0
2.968802985E0,2.395663500E0,-3.340330124E-1,-4.154034615E0,4.806951761E0
2.973820433E0,3.081603289E0,1.000971794E-1,-1.913656712E0,3.628826296E0
2.978837881E0,6.480969906E0,1.662539482E0,1.143504143E1,1.324866714E1
2.983855328E0,1.047924232E1,2.779359818E0,3.382943344E1,3.552421607E1
2.988872776E0,6.641200066E0,2.010650396E0,2.239510536E1,2.344544727E1
2.993890224E0,2.931670904E0,2.083772898E0,9.905319214E0,1.053812851E1
2.998907672E0,2.740420699E-1,2.357212543E0,5.033740044E0,5.565077615E0
3.003925120E0,-1.009157538E0,1.992216110E0,2.154365540E0,3.103000942E0
3.008942568E0,-1.442039967E0,1.487204552E0,1.502436638E0,2.559017877E0
3.013960016E0,-1.539988399E0,1.058927059E0,2.280621529E0,2.948580225E0
3.018977464E0,-1.458440542E0,7.490611076E-1,3.779216766E0,4.119541325E0
3.023994912E0,-1.172224045E0,5.790450573E-1,5.074463844E0,5.240189471E0
3.029012360E0,-6.789118052E-1,5.083451271E-1,5.755622864E0,5.817777115E0
3.034029808E0,1.013368964E-1,6.070179939E-1,5.608667374E0,5.642330168E0
3.039047256E0,8.450533748E-1,8.695077896E-1,5.194478035E0,5.334112959E0
3.044064703E0,1.215997696E0,1.194789648E0,4.776610374E0,5.071703793E0
3.049082151E0,1.103634238E0,1.444441319E0,4.355074883E0,4.719226259E0
3.054099599E0,6.276386976E-1,1.441591740E0,4.025588036E0,4.321744568E0
3.059117047E0,2.569672167E-1,1.310644150E0,3.888569832E0,4.111544184E0
3.064134495E0,7.736679912E-2,1.108649731E0,3.738300323E0,3.899997328E0
3.069151943E0,-7.004618645E-3,8.158891201E-1,3.613256454E0,3.704233568E0
3.074169391E0,-3.471846879E-2,5.180089474E-1,3.346217155E0,3.386252780E0
3.079186839E0,-5.928024650E-2,2.481491566E-1,2.951880455E0,2.962885481E0
3.084204287E0,-1.868182421E-1,-3.690791130E-2,2.507053375E0,2.514275219E0
3.089221683E0,-4.186756313E-1,-3.086853027E-1,2.035859108E0,2.101261099E0
3.094239078E0,-6.990789175E-1,-5.865192413E-1,1.457145691E0,1.719299194E0
3.099256474E0,-9.774035215E-1,-8.609390259E-1,7.854671478E-1,1.521016861E0
3.104273870E0,-1.236624718E0,-1.050305247E0,5.913162231E-2,1.623538837E0
3.109291266E0,-1.454765320E0,-1.168383002E0,-7.028369904E-1,1.993850749E0
3.114308662E0,-1.618990898E0,-1.233602881E0,-1.424097061E0,2.484141710E0
3.119326058E0,-1.739551425E0,-1.311890602E0,-2.095427036E0,3.022897712E0
3.124343453E0,-1.778243423E0,-1.411793470E0,-2.745846748E0,3.563002223E0
3.129360849E0,-1.739953637E0,-1.541842461E0,-3.356515408E0,4.083002879E0
3.134378245E0,-1.705813169E0,-1.691417813E0,-3.946875095E0,4.620445412E0
3.139395641E0,-1.651506305E0,-1.806864738E0,-4.507647514E0,5.129436555E0
3.144413037E0,-1.576482058E0,-1.868073940E0,-5.048701763E0,5.609312384E0
3.149430433E0,-1.527997017E0,-1.921915531E0,-5.579905510E0,6.096218475E0
3.154447828E0,-1.424232841E0,-1.967280865E0,-6.130289078E0,6.593866647E0
3.159465224E0,-1.341655016E0,-1.969390273E0,-6.652405262E0,7.066330872E0
3.164482620E0,-1.260758281E0,-1.902834177E0,-7.122867584E0,7.479674590E0
3.169500016E0,-1.166642189E0,-1.751758218E0,-7.508780003E0,7.798172092E0
3.174517412E0,-1.029741287E0,-1.543479562E0,-7.805956841E0,8.023444302E0
3.179534808E0,-8.582268953E-1,-1.329399467E0,-7.986248016E0,8.141499476E0
3.184552203E0,-6.315634251E-1,-1.184875965E0,-8.026293755E0,8.137824946E0
3.189569599E0,-3.486805260E-1,-1.128085256E0,-7.988732338E0,8.075518486E0
3.194586995E0,-8.899539709E-3,-1.096126437E0,-7.869052887E0,7.945034028E0
3.199604391E0,3.546858728E-1,-1.021734357E0,-7.648231983E0,7.724324931E0
3.204621787E0,7.182719111E-1,-8.518769741E-1,-7.340737343E0,7.424825497E0
3.209639183E0,1.048455715E0,-6.438798904E-1,-6.913029671E0,7.021667888E0
3.214656578E0,1.311600089E0,-4.649887085E-1,-6.297911644E0,6.449821731E0
3.219673974E0,1.546039343E0,-3.012025356E-1,-5.466443062E0,5.688845258E0
3.224691370E0,1.847881794E0,-9.591627121E-2,-4.279588699E0,4.662482868E0
3.229708766E0,2.897642612E0,5.735659599E-1,3.858413696E-1,2.978956895E0
3.234726162E0,5.441778183E0,1.768665552E0,1.704960632E1,1.798416535E1
3.239743558E0,6.596923351E0,1.956875563E0,2.841450882E1,2.923581829E1
3.244760953E0,4.484331608E0,1.934515953E0,1.522956085E1,1.599347072E1
3.249778349E0,2.232508659E0,2.357039452E0,5.748034477E0,6.601486972E0
3.254795745E0,-6.928408146E-2,2.278112650E0,2.707893372E0,3.539390349E0
3.259813141E0,-1.081948042E0,1.819754362E0,9.007282257E-1,2.300745279E0
3.264830537E0,-1.477488518E0,1.387590408E0,9.409227371E-1,2.234662180E0
3.269847933E0,-1.609474421E0,1.115867615E0,2.108368874E0,2.877635792E0
3.274865328E0,-1.461678982E0,9.834313393E-1,3.674666405E0,4.075146112E0
3.279882724E0,-9.577677250E-1,8.436590433E-1,4.912693024E0,5.075788839E0
3.284900120E0,-1.546092033E-1,8.229478598E-1,5.383411407E0,5.448143314E0
3.289917516E0,7.541452050E-1,9.764678478E-1,5.404032707E0,5.543085237E0
3.294934912E0,1.269419074E0,1.168707371E0,5.334227562E0,5.606361154E0
3.299952308E0,1.237725973E0,1.197820902E0,5.284389496E0,5.558013390E0
3.304969756E0,9.366105795E-1,1.101391792E0,5.312136650E0,5.505370019E0
3.309987203E0,5.908273458E-1,9.980247021E-1,5.427234650E0,5.549775329E0
3.315004651E0,3.242380321E-1,8.431899548E-1,5.591704369E0,5.664208448E0
3.320022099E0,1.550956964E-1,6.833797693E-1,5.533276558E0,5.577473626E0
3.325039547E0,7.173776627E-2,4.840080738E-1,5.262180328E0,5.284879557E0
3.330056995E0,1.900494099E-2,2.588487864E-1,4.841143608E0,4.848096051E0
3.335074443E0,-2.452734113E-2,2.185797691E-2,4.318389893E0,4.318514863E0
3.340091891E0,-8.515363932E-2,-2.560559511E-1,3.670324326E0,3.680230488E0
3.345109339E0,-1.986227334E-1,-5.319012403E-1,2.940257072E0,2.994575358E0
3.350126787E0,-3.332577944E-1,-8.150343895E-1,2.133118629E0,2.307712482E0
3.355144235E0,-4.668683410E-1,-1.061931133E0,1.249004364E0,1.704604259E0
3.360161683E0,-6.252489090E-1,-1.300489664E0,2.735910416E-1,1.468693849E0
3.365179131E0,-7.957456708E-1,-1.505547285E0,-7.692556381E-1,1.868592528E0
3.370196578E0,-9.939260483E-1,-1.661177516E0,-1.874904633E0,2.694933600E0
3.375214026E0,-1.162776828E0,-1.770190358E0,-2.919254303E0,3.606614693E0
3.380231474E0,-1.296901107E0,-1.849578142E0,-3.931434155E0,4.534210659E0
3.385248922E0,-1.400248408E0,-1.949698210E0,-4.983644962E0,5.531612407E0
3.390266370E0,-1.472401619E0,-2.058439493E0,-6.052508354E0,6.560335133E0
3.395283818E0,-1.503457189E0,-2.111063719E0,-7.071741104E0,7.531699396E0
3.400301266E0,-1.530624390E0,-2.123803616E0,-7.961014748E0,8.380400267E0
3.405318714E0,-1.557090163E0,-2.065443754E0,-8.754875183E0,9.128988287E0
3.410336162E0,-1.523396850E0,-1.976441383E0,-9.392329216E0,9.718174037E0
3.415353610E0,-1.455737948E0,-1.888128400E0,-9.865021706E0,1.014903222E1
3.420371058E0,-1.346941829E0,-1.813047647E0,-1.022673321E1,1.047317842E1
3.425388506E0,-1.204836249E0,-1.764041543E0,-1.046415424E1,1.067998113E1
3.430405953E0,-9.850285053E-1,-1.725540042E0,-1.057343197E1,1.075849586E1
3.435423401E0,-7.098190784E-1,-1.677593231E0,-1.055531502E1,1.071134153E1
3.440440849E0,-4.062111080E-1,-1.633737803E0,-1.039613628E1,1.053156001E1
3.445458297E0,-9.189036489E-2,-1.550625324E0,-1.011062527E1,1.022925344E1
3.450475745E0,2.049640417E-1,-1.461678386E0,-9.646292686E0,9.758559143E0
3.455493193E0,4.981411099E-1,-1.338633180E0,-9.060285568E0,9.172178473E0
3.460510641E0,7.816990614E-1,-1.196695447E0,-8.361530304E0,8.482825145E0
3.465528089E0,1.068926930E0,-9.935753345E-1,-7.520586491E0,7.660875791E0
3.470545537E0,1.358479500E0,-7.974679470E-1,-6.589094639E0,6.774775999E0
3.475562985E0,1.605906010E0,-6.575415134E-1,-5.432003021E0,5.702451383E0
3.480580433E0,1.852940083E0,-4.849486351E-1,-3.708573818E0,4.173976748E0
3.485597881E0,3.165530205E0,3.972918987E-1,6.215003967E0,6.986035832E0
3.490615328E0,6.226387978E0,1.230059147E0,3.729043198E1,3.782667405E1
3.495632776E0,5.561031818E0,1.089946032E0,2.902902222E1,2.957697057E1
3.500650224E0,2.877810955E0,1.492296934E0,1.074383450E1,1.122224245E1
3.505667672E0,5.500465631E-1,2.373801708E0,4.987875938E0,5.551251404E0
3.510685120E0,-1.234879732E0,2.164384127E0,2.699261665E0,3.673622210E0
3.515702568E0,-1.769345522E0,1.578762293E0,2.241216660E0,3.262840184E0
3.520720016E0,-2.056875229E0,1.030056238E0,3.577225685E0,4.253033642E0
3.525737464E0,-2.217367649E0,5.783269405E-1,5.719651222E0,6.161622469E0
3.530754912E0,-2.008610249E0,2.772667408E-1,7.361990929E0,7.636118282E0
3.535772360E0,-9.263428450E-1,2.722216845E-1,7.534341812E0,7.595954335E0
3.540789808E0,5.335424542E-1,5.856304169E-1,6.841485023E0,6.887201744E0
3.545807256E0,1.421802402E0,8.727413416E-1,5.997215271E0,6.224932974E0
3.550824703E0,1.436976433E0,1.124814153E0,5.279027939E0,5.585538839E0
3.555842151E0,1.010226846E0,1.371708155E0,4.677051544E0,4.977645296E0
3.560859599E0,5.237601399E-1,1.480224848E0,4.224615097E0,4.506968272E0
3.565877047E0,1.920620799E-1,1.494055629E0,3.916796684E0,4.196473082E0
3.570894495E0,1.296728849E-1,1.331724644E0,3.791833878E0,4.020983678E0
3.575911943E0,2.354864776E-1,1.083679676E0,3.639335632E0,3.804547196E0
3.580929391E0,4.129832685E-1,8.020646572E-1,3.397437096E0,3.515173070E0
3.585946839E0,5.604612827E-1,5.102765560E-1,3.090456963E0,3.182047022E0
3.590964235E0,6.048150063E-1,1.886055470E-1,2.666162491E0,2.740400641E0
3.595981631E0,5.349916816E-1,-1.298531294E-1,2.105814934E0,2.176587804E0
3.600999026E0,3.065467179E-1,-4.071013927E-1,1.500637054E0,1.584807245E0
3.606016422E0,3.742770851E-2,-6.528149843E-1,7.981958389E-1,1.031835662E0
3.611033818E0,-2.318765670E-1,-9.055174589E-1,2.265644073E-2,9.350090508E-1
3.616051214E0,-4.897925854E-1,-1.213158011E0,-8.736419678E-1,1.573181307E0
3.621068610E0,-7.630828023E-1,-1.498631835E0,-1.871539116E0,2.516118320E0
3.626086006E0,-1.034974217E0,-1.703505754E0,-2.894668579E0,3.514571051E0
3.631103401E0,-1.340594888E0,-1.826356888E0,-3.900354862E0,4.510603306E0
3.636120797E0,-1.623088956E0,-1.860580206E0,-4.831724644E0,5.426024281E0
3.641138193E0,-1.814465761E0,-1.904442906E0,-5.708575726E0,6.285461447E0
3.646155589E0,-1.931971192E0,-1.974696279E0,-6.512468338E0,7.074191257E0
3.651172985E0,-1.978665829E0,-2.025707722E0,-7.272937775E0,7.804757146E0
3.656190381E0,-1.943466425E0,-2.011973381E0,-7.895196915E0,8.376110849E0
3.661207776E0,-1.848197937E0,-1.916716218E0,-8.375529289E0,8.788579382E0
3.666225172E0,-1.719032526E0,-1.828671932E0,-8.676742554E0,9.032440158E0
3.671242568E0,-1.558087945E0,-1.760464787E0,-8.866799355E0,9.173167670E0
3.676259964E0,-1.396586299E0,-1.744191289E0,-8.956095695E0,9.230617891E0
3.681277360E0,-1.184734464E0,-1.735831261E0,-8.935724258E0,9.179535606E0
3.686294756E0,-9.401843548E-1,-1.701079845E0,-8.844527245E0,9.055566324E0
3.691312151E0,-6.621392965E-1,-1.620297670E0,-8.658929825E0,8.834073732E0
3.696329547E0,-3.213055134E-1,-1.536460876E0,-8.335999489E0,8.482501797E0
3.701346943E0,-8.267462254E-3,-1.363639235E0,-7.952205658E0,8.068280805E0
3.706364339E0,2.714182436E-1,-1.164631367E0,-7.516672611E0,7.611202351E0
3.711381735E0,5.545356870E-1,-9.547313452E-1,-7.009554863E0,7.095976405E0
3.716399131E0,8.727589846E-1,-7.203612328E-1,-6.410988808E0,6.510100310E0
3.721416526E0,1.180976152E0,-3.859260082E-1,-5.653203487E0,5.788121736E0
3.726433922E0,1.533960223E0,-1.063871384E-2,-4.567785263E0,4.818486210E0
3.731451318E0,2.237633228E0,3.880023956E-1,-1.752512932E0,2.868597201E0
3.736468714E0,5.848427296E0,1.450896502E0,1.604994965E1,1.714380606E1
3.741486110E0,7.948946953E0,1.691098452E0,3.341968918E1,3.439362145E1
3.746503506E0,3.827139854E0,8.305366039E-1,1.688420486E1,1.733243100E1
3.751520901E0,2.014948368E0,1.416622162E0,5.549162865E0,6.071247300E0
3.756538297E0,-2.638795376E-1,1.765412569E0,3.088173866E0,3.566949926E0
3.761555693E0,-1.389590025E0,1.385425687E0,1.946547508E0,2.763948620E0
3.766573089E0,-1.818855524E0,9.362158775E-1,2.169507980E0,2.981861912E0
3.771590485E0,-2.048196316E0,6.092087030E-1,3.845827103E0,4.399616971E0
3.776607881E0,-2.037386179E0,4.444280863E-1,5.749505997E0,6.115985446E0
3.781625276E0,-1.620990038E0,3.046467304E-1,6.594161987E0,6.797307603E0
3.786642672E0,-3.566212058E-1,3.699452877E-1,6.094586372E0,6.116209713E0
3.791660068E0,7.386886477E-1,6.349961758E-1,5.362144470E0,5.449905906E0
3.796677464E0,1.181937456E0,8.416811228E-1,4.765295982E0,4.981309975E0
3.801694860E0,1.313735008E0,1.177248240E0,4.270246506E0,4.620261714E0
3.806712308E0,1.129625082E0,1.369681597E0,3.991523743E0,4.368562955E0
3.811729756E0,8.121377230E-1,1.424131393E0,3.837957382E0,4.173443994E0
3.816747203E0,6.160042882E-1,1.403172493E0,3.751936913E0,4.052824314E0
3.821764651E0,6.283340454E-1,1.244460821E0,3.623438835E0,3.882369818E0
3.826782099E0,7.010252476E-1,9.380707741E-1,3.519656181E0,3.709365554E0
3.831799547E0,7.562670708E-1,5.549733639E-1,3.278339386E0,3.409903876E0
3.836816995E0,7.203639746E-1,1.610704660E-1,2.890553474E0,2.983314824E0
3.841834443E0,5.382275581E-1,-1.820663214E-1,2.352054596E0,2.419710287E0
3.846851891E0,2.075938582E-1,-4.268764257E-1,1.711089134E0,1.775709638E0
3.851869339E0,-2.016556859E-1,-5.922491550E-1,1.025237083E0,1.201055850E0
3.856886787E0,-6.143661141E-1,-7.255543470E-1,3.423547745E-1,1.010485836E0
3.861904235E0,-9.602618814E-1,-8.930984735E-1,-4.141616821E-1,1.375230040E0
3.866921683E0,-1.241264582E0,-1.094167352E0,-1.206064224E0,2.047567061E0
3.871939131E0,-1.454420805E0,-1.275096536E0,-2.038307667E0,2.809966049E0
3.876956578E0,-1.629528522E0,-1.377007723E0,-2.834692955E0,3.547815895E0
3.881974026E0,-1.776072860E0,-1.426981926E0,-3.581370354E0,4.244634947E0
3.886991474E0,-1.864627242E0,-1.418443084E0,-4.231094837E0,4.836422134E0
3.892008922E0,-1.860443711E0,-1.397537708E0,-4.813203812E0,5.346147527E0
3.897026370E0,-1.843757987E0,-1.444040060E0,-5.333063126E0,5.824625096E0
3.902043818E0,-1.798922658E0,-1.532769203E0,-5.786395550E0,6.250430195E0
3.907061266E0,-1.758592129E0,-1.643563151E0,-6.231063843E0,6.679828046E0
3.912078714E0,-1.688629746E0,-1.703534007E0,-6.653177738E0,7.072359758E0
3.917096162E0,-1.583732009E0,-1.697331190E0,-6.971899986E0,7.348233098E0
3.922113610E0,-1.433551550E0,-1.629055738E0,-7.230746269E0,7.549343300E0
3.927131058E0,-1.261320949E0,-1.545897841E0,-7.406195641E0,7.670232365E0
3.932148506E0,-1.066175461E0,-1.519098639E0,-7.474681377E0,7.701639597E0
3.937165953E0,-8.429863453E-1,-1.505126715E0,-7.479547024E0,7.675914023E0
3.942183401E0,-6.303385496E-1,-1.494320512E0,-7.487831593E0,7.661458245E0
3.947200849E0,-4.242104292E-1,-1.481945157E0,-7.456385136E0,7.614052484E0
3.952218297E0,-2.351599187E-1,-1.434419751E0,-7.337309837E0,7.479904803E0
3.957235745E0,-9.258735180E-2,-1.342207909E0,-7.116166115E0,7.242231332E0
3.962253193E0,7.978120446E-2,-1.229294300E0,-6.788046837E0,6.898920885E0
3.967270641E0,2.862193584E-1,-1.057351470E0,-6.376714706E0,6.470116235E0
3.972288089E0,5.592191219E-1,-8.457326889E-1,-5.805315971E0,5.893189572E0
3.977305537E0,8.501953483E-1,-5.805999041E-1,-4.920441151E0,5.026994082E0
3.982322985E0,1.592597246E0,-8.167529106E-2,-2.210662365E0,2.725814545E0
3.987340433E0,4.834129333E0,1.262244463E0,1.197868061E1,1.297886192E1
3.992357881E0,7.786494732E0,1.887856960E0,2.887261009E1,2.996366329E1
3.997375328E0,5.527527332E0,1.671944380E0,1.724040222E1,1.818187078E1
4.002392776E0,2.798545599E0,2.057985544E0,5.813678741E0,6.772445827E0
4.007410224E0,3.546445370E-1,2.331297159E0,2.494856834E0,3.432933121E0
4.012427672E0,-1.234622955E0,1.857717276E0,8.873176575E-1,2.400570754E0
4.017445120E0,-1.617270708E0,1.301687479E0,9.734897614E-1,2.292953805E0
4.022462568E0,-1.749871969E0,8.739159107E-1,2.406426430E0,3.101075473E0
4.027480016E0,-1.644533873E0,6.053984165E-1,4.242236137E0,4.589941867E0
4.032497464E0,-7.474555373E-1,5.746855736E-1,5.117641449E0,5.203768566E0
4.037514912E0,6.436498165E-1,8.325943947E-1,4.981610298E0,5.091555722E0
4.042532360E0,1.446468472E0,1.171952724E0,4.672705650E0,5.029902815E0
4.047549808E0,1.503185034E0,1.347810864E0,4.449718475E0,4.886323145E0
4.052567256E0,1.110349536E0,1.431297898E0,4.274605751E0,4.642601005E0
4.057584703E0,7.118802667E-1,1.469431043E0,4.248126984E0,4.551107994E0
4.062602151E0,3.829804659E-1,1.317481637E0,4.380099297E0,4.589956617E0
4.067619599E0,1.758152246E-1,1.069810629E0,4.579845428E0,4.706420075E0
4.072637047E0,1.002779007E-1,7.776782513E-1,4.723253250E0,4.787897282E0
4.077654495E0,1.177937090E-1,4.828262329E-1,4.748575211E0,4.774511814E0
4.082671943E0,1.076781750E-1,2.318001986E-1,4.675476074E0,4.682456881E0
4.087689391E0,1.011796892E-1,5.185437202E-2,4.490173340E0,4.491612497E0
4.092706839E0,1.923161745E-2,-1.250922680E-1,4.145330429E0,4.147262024E0
4.097724235E0,-1.455103308E-1,-3.093239069E-1,3.693997383E0,3.709780479E0
4.102741631E0,-3.428018391E-1,-5.543128252E-1,3.117415428E0,3.184816284E0
4.107759026E0,-5.605718493E-1,-8.365875483E-1,2.439814568E0,2.639472419E0
4.112776422E0,-7.773524523E-1,-1.161095858E0,1.661429405E0,2.170891083E0
4.117793818E0,-9.716742635E-1,-1.441448212E0,7.776327133E-1,1.904372983E0
4.122811214E0,-1.150405407E0,-1.624054432E0,-2.211084366E-1,2.002467063E0
4.127828610E0,-1.343655109E0,-1.769487143E0,-1.315732956E0,2.582178734E0
4.132846006E0,-1.508933783E0,-1.832300425E0,-2.453866482E0,3.414039648E0
4.137863401E0,-1.669735789E0,-1.872107506E0,-3.578471184E0,4.370155619E0
4.142880797E0,-1.773073077E0,-1.938723326E0,-4.752227783E0,5.430110973E0
4.147898193E0,-1.861535192E0,-2.000406742E0,-5.875275135E0,6.479644922E0
4.152915589E0,-1.891427040E0,-2.039729834E0,-6.934081078E0,7.471243165E0
4.157932985E0,-1.899752617E0,-2.024924755E0,-7.853078365E0,8.329478980E0
4.162950381E0,-1.817121744E0,-1.943386316E0,-8.614322662E0,9.015832559E0
4.167967776E0,-1.650148392E0,-1.835487127E0,-9.266890526E0,9.589956346E0
4.172985172E0,-1.424661279E0,-1.703690290E0,-9.754611015E0,1.000423193E1
4.178002568E0,-1.147040844E0,-1.593896270E0,-1.007397366E1,1.026358384E1
4.183019964E0,-8.052849770E-1,-1.518805027E0,-1.032184982E1,1.046402582E1
4.188037360E0,-4.504171312E-1,-1.477168083E0,-1.046569157E1,1.057901702E1
4.193054756E0,-1.048751473E-1,-1.424939275E0,-1.047283554E1,1.056985028E1
4.198072151E0,2.276925445E-1,-1.371101737E0,-1.033431435E1,1.042735906E1
4.203089547E0,5.047617555E-1,-1.301079154E0,-1.005998993E1,1.015632752E1
4.208106943E0,7.456071377E-1,-1.219773889E0,-9.630705833E0,9.736235063E0
4.213124339E0,9.544122815E-1,-1.108590245E0,-9.079566002E0,9.196651234E0
4.218141735E0,1.163618088E0,-9.585249424E-1,-8.405967712E0,8.540086083E0
4.223159131E0,1.357680798E0,-7.320873737E-1,-7.556489468E0,7.712313670E0
4.228176526E0,1.558780909E0,-4.784424305E-1,-6.472688198E0,6.674908059E0
4.233193922E0,1.850762844E0,-2.760248184E-1,-5.086367130E0,5.419653438E0
4.238211318E0,2.690214634E0,1.871478558E-1,-2.877330780E-1,2.712023123E0
4.243228714E0,5.421665192E0,1.279383421E0,2.209187317E1,2.278337410E1
4.248246110E0,6.824210644E0,1.401925564E0,3.812212372E1,3.875347162E1
4.253263506E0,4.250506401E0,1.473543167E0,1.771611023E1,1.827836688E1
4.258280901E0,1.822072983E0,2.088929653E0,6.567790031E0,7.128775698E0
4.263298297E0,-4.311364889E-1,2.130601645E0,3.490704536E0,4.112220836E0
4.268315693E0,-1.430914402E0,1.692700982E0,1.906312943E0,2.923487930E0
4.273333089E0,-2.011131525E0,1.205640554E0,2.026795387E0,3.099373921E0
4.278350485E0,-2.418602943E0,7.407087088E-1,3.624933243E0,4.420229700E0
4.283367881E0,-2.510753155E0,2.994995117E-1,5.632433891E0,6.173968975E0
4.288385276E0,-2.023524761E0,-7.371866703E-2,6.733810425E0,7.031663369E0
4.293402672E0,-6.372546554E-1,-2.695608139E-2,6.523977280E0,6.555081973E0
4.298420068E0,5.259495974E-1,4.341055155E-1,5.946863174E0,5.985837635E0
4.303437464E0,8.582681417E-1,9.170827866E-1,5.514617920E0,5.655853237E0
4.308454860E0,7.236960530E-1,1.168848991E0,5.107478142E0,5.289260526E0
4.313472308E0,4.661550522E-1,1.223532915E0,4.849784851E0,5.023419794E0
4.318489756E0,2.956005335E-1,1.191190481E0,4.693651199E0,4.851461225E0
4.323507203E0,2.644533515E-1,1.076151371E0,4.639122963E0,4.769643510E0
4.328524651E0,4.013837576E-1,9.065706730E-1,4.461492538E0,4.570327666E0
4.333542099E0,6.005510092E-1,7.011160851E-1,4.247228622E0,4.346398078E0
4.338559547E0,7.745164633E-1,4.737076759E-1,3.862741470E0,3.968002820E0
4.343576995E0,8.594455719E-1,2.526621819E-1,3.370686531E0,3.487694448E0
4.348594443E0,8.155027032E-1,2.345359325E-2,2.752291679E0,2.870662679E0
4.353611891E0,6.121417284E-1,-1.945823431E-1,2.060458183E0,2.158255710E0
4.358629339E0,2.953625917E-1,-4.490243196E-1,1.276246071E0,1.384798156E0
4.363646787E0,-4.558600485E-2,-7.492345572E-1,4.859514236E-1,8.941919769E-1
4.368664235E0,-3.552613258E-1,-1.090074897E0,-4.777498245E-1,1.242062311E0
4.373681683E0,-6.502085924E-1,-1.379625440E0,-1.562157631E0,2.183225602E0
4.378699131E0,-9.225819707E-1,-1.568418503E0,-2.643097878E0,3.208903315E0
4.383716578E0,-1.206641436E0,-1.611382723E0,-3.639745712E0,4.159361331E0
4.388734026E0,-1.440138221E0,-1.559312105E0,-4.519202232E0,4.992859016E0
4.393751474E0,-1.608157158E0,-1.525319457E0,-5.325107574E0,5.767975344E0
4.398768922E0,-1.691135764E0,-1.531469464E0,-6.105875015E0,6.518209002E0
4.403786370E0,-1.741313219E0,-1.590346575E0,-6.780742168E0,7.179125177E0
4.408803818E0,-1.757780910E0,-1.633134842E0,-7.379110336E0,7.759393823E0
4.413821266E0,-1.734272599E0,-1.643334866E0,-7.854002953E0,8.209361322E0
4.418838714E0,-1.682923555E0,-1.619284749E0,-8.177561760E0,8.504518277E0
4.423856162E0,-1.610837460E0,-1.626596093E0,-8.388885498E0,8.695631781E0
4.428873610E0,-1.501732826E0,-1.654737830E0,-8.526903152E0,8.814841810E0
4.433891058E0,-1.392661810E0,-1.688854575E0,-8.611194611E0,8.885066647E0
4.438908506E0,-1.244924068E0,-1.704439044E0,-8.632599831E0,8.886885181E0
4.443925953E0,-1.081916928E0,-1.701221824E0,-8.524435043E0,8.759605741E0
4.448943401E0,-9.081164598E-1,-1.674775004E0,-8.291554451E0,8.507609655E0
4.453960849E0,-7.668155432E-1,-1.639943957E0,-7.972142220E0,8.175113077E0
4.458978297E0,-6.298391223E-1,-1.621001601E0,-7.556453228E0,7.753987935E0
4.463995745E0,-4.830838442E-1,-1.594528317E0,-7.005970955E0,7.201355399E0
4.469013193E0,-3.071423173E-1,-1.517830491E0,-6.425753117E0,6.609723816E0
4.474030641E0,-7.337552309E-2,-1.300407410E0,-5.772421837E0,5.917541488E0
4.479048089E0,2.032681704E-1,-9.714336395E-1,-5.031255245E0,5.128209298E0
4.484065537E0,5.174568892E-1,-6.609212160E-1,-4.096525669E0,4.181638560E0
4.489082985E0,1.340753675E0,-1.651048660E-1,-1.102791786E0,1.743854855E0
4.494100433E0,4.259570122E0,1.036878347E0,1.201999664E1,1.279450560E1
4.499117881E0,7.459476948E0,1.711207628E0,2.740764427E1,2.845612399E1
4.504135328E0,7.317437172E0,1.815998554E0,2.331348038E1,2.450226734E1
4.509152776E0,4.725754738E0,2.812113523E0,1.096900082E1,1.227027788E1
4.514170224E0,1.174073458E0,3.096507788E0,5.125978470E0,6.102660423E0
4.519187672E0,-1.259879112E0,2.614469290E0,1.846473694E0,3.439797981E0
4.524205120E0,-1.988132358E0,2.025177479E0,7.135448456E-1,2.926287809E0
4.529222568E0,-2.187919617E0,1.546324015E0,1.297751427E0,2.976956327E0
4.534240016E0,-1.915124178E0,1.171700239E0,2.673563004E0,3.491206267E0
4.539257464E0,-1.191839099E0,8.600599766E-1,3.926442146E0,4.192508978E0
4.544274912E0,-1.136510968E-1,6.756539345E-1,4.650002480E0,4.700207216E0
4.549292360E0,8.632595539E-1,7.785534859E-1,5.069801331E0,5.201369831E0
4.554309808E0,1.396563768E0,8.651909828E-1,5.262952805E0,5.513403488E0
4.559327256E0,1.582389832E0,8.767476082E-1,5.282748222E0,5.583911956E0
4.564344703E0,1.567791224E0,8.501722813E-1,5.364359856E0,5.653062788E0
4.569362151E0,1.418077946E0,7.840199471E-1,5.513176918E0,5.746368598E0
4.574379599E0,1.184030294E0,6.813724041E-1,5.600731850E0,5.764927870E0
4.579397047E0,9.449151158E-1,5.837689638E-1,5.541708946E0,5.651919039E0
4.584414495E0,6.790763736E-1,4.422752857E-1,5.255599022E0,5.317713158E0
4.589431943E0,4.646241665E-1,3.229374886E-1,4.877160072E0,4.909873176E0
4.594449391E0,2.647655606E-1,1.291906834E-1,4.306554794E0,4.316619653E0
4.599466839E0,5.646461248E-2,-1.585410833E-1,3.625685692E0,3.629589545E0
4.604484235E0,-1.923787743E-1,-4.828809500E-1,2.863556862E0,2.910350753E0
4.609501631E0,-4.837614298E-1,-7.862212658E-1,2.111166954E0,2.304169028E0
4.614519026E0,-7.613660693E-1,-1.058334351E0,1.325375557E0,1.859131587E0
4.619536422E0,-1.016021848E0,-1.288548589E0,5.203981400E-1,1.721473812E0
4.624553818E0,-1.214112282E0,-1.470525265E0,-3.709487915E-1,1.942708468E0
4.629571214E0,-1.359888315E0,-1.592692375E0,-1.286750793E0,2.457985524E0
4.634588610E0,-1.442767143E0,-1.671833754E0,-2.203548908E0,3.119652692E0
4.639606006E0,-1.470965862E0,-1.734135032E0,-3.136274815E0,3.873910762E0
4.644623401E0,-1.467370868E0,-1.858674645E0,-4.080711842E0,4.718056574E0
4.649640797E0,-1.459874511E0,-2.019341469E0,-5.056614399E0,5.637226511E0
4.654658193E0,-1.419491529E0,-2.190182686E0,-6.107687950E0,6.641965710E0
4.659675589E0,-1.418419361E0,-2.278302908E0,-7.148550987E0,7.635729097E0
4.664692985E0,-1.486167789E0,-2.276838541E0,-8.165804863E0,8.606570600E0
4.669710381E0,-1.580448389E0,-2.183894634E0,-9.055202484E0,9.447957711E0
4.674727776E0,-1.629936218E0,-2.055089235E0,-9.851305008E0,1.019452275E1
4.679745172E0,-1.644337296E0,-1.946082950E0,-1.045946312E1,1.076528925E1
4.684762568E0,-1.642448306E0,-1.894021034E0,-1.085660744E1,1.114230125E1
4.689779964E0,-1.575795174E0,-1.888409853E0,-1.108171654E1,1.135137276E1
4.694797360E0,-1.433701277E0,-1.928411007E0,-1.109232807E1,1.134962600E1
4.699814756E0,-1.214494228E0,-1.975393414E0,-1.090318012E1,1.114704051E1
4.704832151E0,-9.257299900E-1,-2.043406487E0,-1.056240177E1,1.079800061E1
4.709849547E0,-5.845469236E-1,-2.051151991E0,-1.012266731E1,1.034491726E1
4.714866943E0,-2.042760402E-1,-1.974910259E0,-9.646020889E0,9.848234270E0
4.719884339E0,2.052477300E-1,-1.829474807E0,-9.065076828E0,9.250120140E0
4.724901735E0,6.246255636E-1,-1.610476494E0,-8.374620438E0,8.550909841E0
4.729919131E0,1.053543448E0,-1.313501954E0,-7.621977329E0,7.805752980E0
4.734936526E0,1.486172199E0,-9.821664095E-1,-6.691617012E0,6.924673053E0
4.739953922E0,1.887954235E0,-6.220729351E-1,-5.496678829E0,5.845068356E0
4.744971318E0,2.469212055E0,-1.822903156E-1,-3.204154015E0,4.049301283E0
4.749988714E0,4.750287056E0,1.131648302E0,1.000897884E1,1.113667421E1
4.755006110E0,8.125749588E0,2.051693439E0,3.841314316E1,3.931674986E1
4.760023506E0,7.161676407E0,1.758664846E0,3.522952271E1,3.599307963E1
4.765040901E0,4.726806641E0,2.810501099E0,1.329917431E1,1.439130483E1
4.770058297E0,2.361810207E0,3.640460014E0,5.142363548E0,6.728669960E0
4.775075693E0,8.581387997E-1,3.289345026E0,1.584879875E0,3.750738210E0
4.780093089E0,-2.465267181E-1,2.426610947E0,1.939239502E-1,2.446798440E0
4.785110485E0,-1.127738357E0,1.807045460E0,7.934942245E-1,2.273068450E0
4.790127881E0,-1.532127380E0,1.305149794E0,2.390699387E0,3.125103814E0
4.795145276E0,-1.540470243E0,8.889448643E-1,4.132873535E0,4.499323860E0
4.800162672E0,-1.160821676E0,5.789270401E-1,5.139955521E0,5.301113679E0
4.805180068E0,-4.066918492E-1,5.210126638E-1,5.331860542E0,5.372670593E0
4.810197464E0,2.939544916E-1,6.709340811E-1,5.030374527E0,5.083426961E0
4.815214860E0,6.371772289E-1,9.277603626E-1,4.681200981E0,4.814600372E0
4.820232308E0,6.927320361E-1,1.128242850E0,4.691270828E0,4.874508343E0
4.825249756E0,6.014701724E-1,1.246889830E0,5.055982590E0,5.242085517E0
4.830267203E0,3.636413813E-1,1.325451374E0,4.952639580E0,5.139814705E0
4.835284651E0,3.742110729E-2,1.215379953E0,4.745391846E0,4.898703149E0
4.840302099E0,-1.339456439E-1,1.007195473E0,4.582895279E0,4.694178660E0
4.845319547E0,-5.150824785E-2,6.906583309E-1,4.317181587E0,4.372381375E0
4.850336995E0,1.346388459E-1,3.466231823E-1,3.924774170E0,3.942350509E0
4.855354443E0,2.796097696E-1,2.277469635E-2,3.425160408E0,3.436629763E0
4.860371891E0,3.150110841E-1,-2.427505255E-1,2.842569351E0,2.870254399E0
4.865389339E0,2.011557966E-1,-4.595685005E-1,2.196370125E0,2.252933329E0
4.870406787E0,2.795432508E-2,-6.561971903E-1,1.496279716E0,1.634083592E0
4.875424235E0,-1.344463080E-1,-8.994333744E-1,7.089643478E-1,1.153120398E0
4.880441683E0,-2.880041897E-1,-1.112272382E0,-1.033029556E-1,1.153589080E0
4.885459131E0,-4.442356229E-1,-1.342356324E0,-9.117813110E-1,1.682441960E0
4.890476578E0,-5.957249403E-1,-1.594274282E0,-1.888632774E0,2.542347822E0
4.895494026E0,-7.641211152E-1,-1.785660863E0,-2.976478100E0,3.554136699E0
4.900511474E0,-9.658592939E-1,-1.900497079E0,-4.127772808E0,4.645781062E0
4.905528922E0,-1.201629043E0,-1.922180891E0,-5.309542179E0,5.773207937E0
4.910546370E0,-1.437915802E0,-1.852426171E0,-6.460424423E0,6.872857361E0
4.915563818E0,-1.587574005E0,-1.745273709E0,-7.514488697E0,7.876160989E0
4.920581266E0,-1.673496008E0,-1.626280546E0,-8.429807663E0,8.746829971E0
4.925598714E0,-1.703676343E0,-1.540281534E0,-9.145401001E0,9.429387030E0
4.930616162E0,-1.646813750E0,-1.484658122E0,-9.614646912E0,9.866997542E0
4.935633610E0,-1.509053349E0,-1.500601649E0,-9.876885414E0,1.010355941E1
4.940651058E0,-1.287116528E0,-1.543479323E0,-1.003831768E1,1.023752017E1
4.945668506E0,-9.878885746E-1,-1.616892576E0,-1.005665970E1,1.023360492E1
4.950685953E0,-6.566184759E-1,-1.672371864E0,-9.932517052E0,1.009370450E1
4.955703401E0,-3.152799606E-1,-1.700104356E0,-9.728484154E0,9.880949357E0
4.960720849E0,1.793330908E-2,-1.690521598E0,-9.478183746E0,9.627780222E0
4.965738297E0,2.949426770E-1,-1.662837148E0,-9.133700371E0,9.288514468E0
4.970755745E0,4.810314476E-1,-1.636643767E0,-8.689905167E0,8.855757781E0
4.975773193E0,5.602172613E-1,-1.564613342E0,-8.131935120E0,8.300013680E0
4.980790641E0,5.881146789E-1,-1.399762511E0,-7.392133236E0,7.546446034E0
4.985808089E0,5.675686002E-1,-1.205530286E0,-6.455338478E0,6.591421110E0
4.990825537E0,6.358034611E-1,-9.356182814E-1,-5.134143353E0,5.257285951E0
4.995842985E0,3.645408630E0,3.923513889E-1,5.478565216E0,6.592239416E0
5.000860433E0,5.925224304E0,1.736410856E0,2.362772560E1,2.442115523E1
5.005877881E0,3.229488850E0,1.012646198E0,2.088735962E1,2.115979306E1
5.010895328E0,-2.535252571E-1,5.334599018E-1,1.366943073E1,1.368218517E1
5.015912776E0,-1.542619467E0,1.051375628E0,9.314063072E0,9.499307156E0
5.020930224E0,-2.124991417E0,1.465130329E0,6.569009781E0,7.057909386E0
5.025947672E0,-1.915817380E0,1.276734352E0,5.201735497E0,5.688449614E0
5.030965120E0,-1.562613249E0,8.866388798E-1,4.855753899E0,5.177473766E0
5.035982568E0,-1.246513128E0,6.304584742E-1,5.572340012E0,5.744758139E0
5.041000016E0,-1.018724442E-1,7.319558859E-1,6.077885628E0,6.122649028E0
5.046017464E0,9.323441386E-1,9.743504524E-1,6.061692238E0,6.209890271E0
5.051034912E0,1.519622326E0,1.232708454E0,5.643797874E0,5.973380667E0
5.056052360E0,1.547616482E0,1.545544386E0,5.202286720E0,5.643368794E0
5.061069808E0,1.266756296E0,1.640566587E0,4.823123932E0,5.249633769E0
5.066087256E0,7.826986909E-1,1.542263389E0,4.554040909E0,4.871394277E0
5.071104703E0,5.060127378E-1,1.350860953E0,4.371241570E0,4.603110586E0
5.076122151E0,3.731430769E-1,1.122985601E0,4.179334641E0,4.343635626E0
5.081139599E0,2.157864571E-1,8.678032160E-1,3.839909554E0,3.942657935E0
5.086157047E0,1.761083603E-1,6.470441818E-1,3.539975166E0,3.602929989E0
5.091174495E0,2.423465550E-1,4.692689180E-1,3.241647720E0,3.284391133E0
5.096191943E0,3.403878510E-1,3.382774591E-1,2.954868317E0,2.993583521E0
5.101209391E0,4.011933804E-1,2.005314827E-1,2.608201027E0,2.646484763E0
5.106226839E0,3.941702843E-1,4.591858387E-2,2.206710815E0,2.242108684E0
5.111244287E0,3.463675380E-1,-1.501034498E-1,1.765005112E0,1.804922314E0
5.116261735E0,2.463153452E-1,-3.447849751E-1,1.201936722E0,1.274440980E0
5.121279131E0,1.305547655E-1,-5.093219280E-1,5.702552795E-1,7.756574353E-1
5.126296526E0,-1.668413728E-2,-6.915694475E-1,-4.386806488E-2,6.931602039E-1
5.131313922E0,-1.679878980E-1,-9.102194309E-1,-7.648811340E-1,1.200734149E0
5.136331318E0,-3.149660230E-1,-1.102435231E0,-1.564072609E0,1.939301462E0
5.141348714E0,-4.630556405E-1,-1.286349773E0,-2.379368305E0,2.744177436E0
5.146366110E0,-6.123631001E-1,-1.431838989E0,-3.258852482E0,3.611823771E0
5.151383506E0,-7.530902028E-1,-1.546468139E0,-4.188532352E0,4.527969945E0
5.156400901E0,-8.752005100E-1,-1.594458342E0,-5.144984722E0,5.457026766E0
5.161418297E0,-9.971668720E-1,-1.601961851E0,-6.066686630E0,6.353369989E0
5.166435693E0,-1.074751377E0,-1.566571832E0,-6.882645607E0,7.140031399E0
5.171453089E0,-1.149966955E0,-1.571997166E0,-7.617680073E0,7.862737995E0
5.176470485E0,-1.193068862E0,-1.577916622E0,-8.234341621E0,8.468625397E0
5.181487881E0,-1.217012286E0,-1.582289815E0,-8.738324165E0,8.963429544E0
5.186505276E0,-1.215642571E0,-1.569094062E0,-9.087407112E0,9.301656361E0
5.191522672E0,-1.182409167E0,-1.541857123E0,-9.282345772E0,9.483530875E0
5.196540068E0,-1.120549440E0,-1.523477554E0,-9.371623993E0,9.560541364E0
5.201557464E0,-1.014541030E0,-1.513248682E0,-9.331777573E0,9.507959179E0
5.206574860E0,-8.732261062E-1,-1.486780882E0,-9.148791313E0,9.309856267E0
5.211592256E0,-7.011506557E-1,-1.448830128E0,-8.837134361E0,8.982519953E0
5.216609651E0,-4.697778225E-1,-1.399635792E0,-8.411066055E0,8.539654779E0
5.221627047E0,-1.991303116E-1,-1.311116219E0,-7.908514023E0,8.018932140E0
5.226644443E0,1.329532862E-1,-1.164864302E0,-7.324176788E0,7.417422129E0
5.231661839E0,4.911512733E-1,-9.758647680E-1,-6.585755825E0,6.675756242E0
5.236679235E0,8.546855450E-1,-6.586977243E-1,-5.678348064E0,5.779965987E0
5.241696631E0,1.359880447E0,-2.244651318E-1,-4.256785393E0,4.474358201E0
5.246714026E0,4.792774200E0,1.093122244E0,6.585901260E0,8.218253841E0
5.251731422E0,6.953863621E0,2.167887688E0,2.281723022E1,2.395165864E1
5.256748818E0,3.862208605E0,1.178173065E0,1.939894867E1,1.981474089E1
5.261766214E0,5.904744864E-1,5.749931335E-1,1.318610477E1,1.321183698E1
5.266783610E0,-7.163259387E-1,1.076909781E0,9.168625832E0,9.259403715E0
5.271801006E0,-1.051961899E0,1.587203741E0,6.391717911E0,6.669325109E0
5.276818401E0,-5.341811180E-1,1.598086476E0,4.671336174E0,4.965945177E0
5.281835797E0,-4.754093885E-1,1.346712112E0,4.507597923E0,4.728433846E0
5.286853193E0,-6.647585034E-1,9.532254934E-1,5.013447762E0,5.146377480E0
5.291870589E0,-5.335085392E-1,6.369166374E-1,5.422745705E0,5.486024530E0
5.296887985E0,1.885049343E-1,6.116509438E-1,5.563485146E0,5.600180171E0
5.301905381E0,8.379020691E-1,8.138335943E-1,5.373874664E0,5.499357590E0
5.306922776E0,1.071913242E0,1.032112241E0,5.083908081E0,5.297204456E0
5.311940172E0,1.111255884E0,1.280389428E0,4.832514763E0,5.121277737E0
5.316957568E0,9.979290962E-1,1.376251340E0,4.653409958E0,4.954205735E0
5.321974964E0,7.830114365E-1,1.290391564E0,4.494250298E0,4.740939046E0
5.326992360E0,6.282163262E-1,1.113149166E0,4.331402779E0,4.516060988E0
5.332009808E0,5.851707458E-1,9.060451984E-1,4.136475563E0,4.274783361E0
5.337027256E0,6.093912721E-1,6.826237440E-1,3.847667694E0,3.954981616E0
5.342044703E0,6.176818609E-1,4.804642200E-1,3.494094849E0,3.580652952E0
5.347062151E0,5.219825506E-1,2.460348606E-1,3.104858398E0,3.158028596E0
5.352079599E0,3.489804268E-1,-5.972552299E-2,2.618116379E0,2.641947738E0
5.357097047E0,1.348557770E-1,-4.134999514E-1,1.991181374E0,2.038129425E0
5.362114495E0,-1.321965158E-1,-7.245955467E-1,1.281744003E0,1.478303864E0
5.367131943E0,-4.445020258E-1,-9.977300167E-1,5.473384857E-1,1.221731008E0
5.372149391E0,-7.559590936E-1,-1.256545782E0,-3.219976425E-1,1.501354034E0
5.377166839E0,-1.073458076E0,-1.495200515E0,-1.354960442E0,2.285575336E0
5.382184287E0,-1.369887948E0,-1.668938398E0,-2.432102680E0,3.252241045E0
5.387201735E0,-1.679413795E0,-1.766126394E0,-3.520315170E0,4.281617923E0
5.392219183E0,-1.934808612E0,-1.789089799E0,-4.591423988E0,5.293911684E0
5.397236631E0,-2.145040512E0,-1.758886099E0,-5.646137238E0,6.290766632E0
5.402254078E0,-2.275515318E0,-1.763562679E0,-6.603912354E0,7.204150308E0
5.407271526E0,-2.358406782E0,-1.762053609E0,-7.408273697E0,7.971789927E0
5.412288974E0,-2.387056589E0,-1.751726627E0,-8.065035820E0,8.591355429E0
5.417306422E0,-2.335465193E0,-1.720610499E0,-8.570463181E0,9.048079204E0
5.422323870E0,-2.196689606E0,-1.700358868E0,-8.930286407E0,9.352362312E0
5.427341318E0,-2.006987333E0,-1.684838295E0,-9.097497940E0,9.467372762E0
5.432358766E0,-1.745126605E0,-1.692386627E0,-9.120629311E0,9.439042239E0
5.437376214E0,-1.457243085E0,-1.727370262E0,-9.024086952E0,9.302768983E0
5.442393662E0,-1.147029877E0,-1.794484496E0,-8.870334625E0,9.122427775E0
5.447411110E0,-8.191608191E-1,-1.822427869E0,-8.668881416E0,8.896166185E0
5.452428558E0,-4.646855593E-1,-1.778144479E0,-8.448277473E0,8.645873162E0
5.457446006E0,-1.326988935E-1,-1.652552247E0,-8.146051407E0,8.313043453E0
5.462463453E0,1.610095501E-1,-1.469845295E0,-7.752378941E0,7.892132063E0
5.467480901E0,4.200868905E-1,-1.259142995E0,-7.228629112E0,7.349489297E0
5.472498349E0,6.916162968E-1,-1.006568551E0,-6.617445469E0,6.729197418E0
5.477515797E0,1.055226803E0,-7.221012115E-1,-5.870461464E0,6.008098831E0
5.482533245E0,1.648472548E0,-2.822868824E-1,-4.174030781E0,4.496629914E0
5.487550693E0,5.970817089E0,1.484757423E0,1.004625225E1,1.178059190E1
5.492568141E0,9.297054291E0,2.546573400E0,2.817785072E1,2.978105985E1
5.497585589E0,5.893155098E0,1.754420519E0,1.955139923E1,2.049547463E1
5.502603037E0,2.261987686E0,1.664312363E0,9.582260132E0,9.985300855E0
5.507620485E0,6.289607286E-2,2.055041552E0,5.108774185E0,5.506970616E0
5.512637933E0,-1.161260605E0,1.928269625E0,2.880186081E0,3.655437292E0
5.517655381E0,-1.427228928E0,1.541943789E0,2.572203636E0,3.321265513E0
5.522672828E0,-1.720569134E0,1.021211386E0,3.756323814E0,4.255960460E0
5.527690276E0,-1.814702868E0,5.364154577E-1,5.345002174E0,5.670091383E0
5.532707724E0,-9.742547274E-1,3.957306147E-1,6.132779121E0,6.222278903E0
5.537725172E0,3.029754758E-1,5.631415844E-1,6.010984421E0,6.044903332E0
5.542742620E0,1.203401804E0,8.268415928E-1,5.483068466E0,5.674141585E0
5.547760068E0,1.417012453E0,1.104987264E0,4.960845947E0,5.276259438E0
5.552777516E0,1.141042709E0,1.340506434E0,4.453765869E0,4.789046500E0
5.557794964E0,6.910216808E-1,1.524296284E0,4.033542633E0,4.366973357E0
5.562812412E0,3.103027940E-1,1.527679205E0,3.690523148E0,4.006251700E0
5.567829860E0,1.037632227E-1,1.384305358E0,3.563381195E0,3.824232429E0
5.572847308E0,2.827078104E-2,1.184762359E0,3.470263481E0,3.667041002E0
5.577864756E0,1.075981855E-1,9.524468184E-1,3.396976471E0,3.529614916E0
5.582882203E0,1.786981225E-1,7.105444670E-1,3.276811600E0,3.357722549E0
5.587899651E0,2.500465512E-1,4.917738438E-1,3.110161781E0,3.158713519E0
5.592917099E0,2.582276762E-1,2.906723022E-1,2.806535721E0,2.833339844E0
5.597934547E0,1.735316813E-1,9.712004662E-2,2.404642105E0,2.412850845E0
5.602951995E0,1.848989725E-2,-1.082912683E-1,1.904839516E0,1.908004836E0
5.607969443E0,-1.606948525E-1,-3.545553684E-1,1.321830750E0,1.377958227E0
5.612986891E0,-3.421357572E-1,-6.705318689E-1,5.889663696E-1,9.557987488E-1
5.618004339E0,-5.376631021E-1,-9.554696083E-1,-1.834964752E-1,1.111609077E0
5.623021787E0,-7.062422633E-1,-1.170469046E0,-1.062532425E0,1.731401477E0
5.628039235E0,-9.312589169E-1,-1.343431711E0,-1.995553493E0,2.579590215E0
5.633056683E0,-1.142516136E0,-1.468247771E0,-2.963667393E0,3.499202631E0
5.638074078E0,-1.307592869E0,-1.528898835E0,-3.948130131E0,4.431146837E0
5.643091474E0,-1.450809479E0,-1.561697483E0,-4.896851063E0,5.340683243E0
5.648108870E0,-1.557926655E0,-1.602818012E0,-5.810468197E0,6.225568384E0
5.653126266E0,-1.637887359E0,-1.659506083E0,-6.651449680E0,7.048291870E0
5.658143662E0,-1.703763843E0,-1.729548216E0,-7.411018372E0,7.798547401E0
5.663161058E0,-1.682556987E0,-1.786640167E0,-8.070942879E0,8.435828356E0
5.668178453E0,-1.606267571E0,-1.790280700E0,-8.608245850E0,8.937958218E0
5.673195849E0,-1.506796598E0,-1.762605071E0,-8.975967407E0,9.270663597E0
5.678213245E0,-1.334603548E0,-1.735790014E0,-9.217930794E0,9.474406669E0
5.683230641E0,-1.140542507E0,-1.699232578E0,-9.334755898E0,9.556458352E0
5.688248037E0,-8.847800493E-1,-1.661864281E0,-9.298208237E0,9.486901762E0
5.693265433E0,-6.235539317E-1,-1.652172804E0,-9.137280464E0,9.306362810E0
5.698282828E0,-3.415516317E-1,-1.675125599E0,-8.871156693E0,9.034385665E0
5.703300224E0,-4.750901461E-2,-1.711869121E0,-8.557159424E0,8.726839657E0
5.708317620E0,2.062372267E-1,-1.738867760E0,-8.185474396E0,8.370674164E0
5.713335016E0,4.386991858E-1,-1.694499493E0,-7.774867058E0,7.969463173E0
5.718352412E0,6.348377466E-1,-1.574691296E0,-7.310484886E0,7.505055690E0
5.723369808E0,7.554963827E-1,-1.437380195E0,-6.744003773E0,6.936744445E0
5.728387203E0,1.059142590E0,-1.130494356E0,-5.118400097E0,5.347692967E0
5.733404599E0,4.444155693E0,4.179282188E-1,8.561632156E0,9.655398956E0
5.738421995E0,6.716306686E0,1.404270649E0,2.542526627E1,2.633486123E1
5.743439391E0,4.573807716E0,1.104258537E0,1.830588913E1,1.890091746E1
5.748456787E0,1.738853216E0,1.358438253E0,8.546236038E0,8.826500746E0
5.753474183E0,-1.780281067E-1,1.782492876E0,3.928382874E0,4.317541761E0
5.758491578E0,-1.543089032E0,1.774893045E0,2.168072701E0,3.198735425E0
5.763508974E0,-1.905972004E0,1.311645269E0,2.313510895E0,3.271922257E0
5.768526370E0,-2.244371414E0,8.054299355E-1,4.098618507E0,4.741792287E0
5.773543766E0,-1.754400253E0,5.746618509E-1,5.914608002E0,6.196026493E0
5.778561162E0,-1.396011114E-1,7.878878117E-1,6.724288940E0,6.771729279E0
5.783578558E0,1.287572384E0,1.054964542E0,6.362019539E0,6.576175594E0
5.788595953E0,1.600757718E0,1.298892975E0,5.661365509E0,6.024998561E0
5.793613349E0,1.248436451E0,1.377041936E0,4.942796707E0,5.280726972E0
5.798630745E0,6.919939518E-1,1.400642633E0,4.263380051E0,4.540601818E0
5.803648141E0,3.050828576E-1,1.648164988E0,3.723248482E0,4.083148618E0
5.808665537E0,5.403363705E-2,1.837499380E0,3.369980812E0,3.838762076E0
5.813682933E0,-2.143042684E-1,1.830016375E0,3.131620407E0,3.633446384E0
5.818700328E0,-3.515312672E-1,1.692744255E0,2.907641411E0,3.382800012E0
5.823717724E0,-3.912450075E-1,1.406155348E0,2.798597336E0,3.156341643E0
5.828735120E0,-2.953642011E-1,1.103722811E0,2.694519997E0,2.926752820E0
5.833752516E0,-1.455699205E-1,8.324102163E-1,2.624329567E0,2.757027937E0
5.838769964E0,3.361672163E-2,5.958653688E-1,2.607410431E0,2.674841075E0
5.843787412E0,2.556720972E-1,3.925857544E-1,2.577116966E0,2.619355580E0
5.848804860E0,4.524529874E-1,1.972616911E-1,2.447751045E0,2.497020436E0
5.853822308E0,5.891133547E-1,-5.596041679E-3,2.224543571E0,2.301234443E0
5.858839756E0,6.402814388E-1,-1.785349846E-1,1.869617462E0,1.984264225E0
5.863857203E0,5.946269035E-1,-3.412728310E-1,1.383356094E0,1.543930822E0
5.868874651E0,5.170152783E-1,-4.941108227E-1,7.756547928E-1,1.055031118E0
5.873892099E0,3.863834739E-1,-6.222826242E-1,7.058143616E-2,7.358733535E-1
5.878909547E0,2.440408468E-1,-7.251325846E-1,-6.887559891E-1,1.029445488E0
5.883926995E0,8.373110741E-2,-8.060731888E-1,-1.540769577E0,1.740900851E0
5.888944443E0,-1.094491631E-1,-8.535547256E-1,-2.366158962E0,2.517785341E0
5.893961891E0,-2.824822664E-1,-9.136428833E-1,-3.103146076E0,3.247161086E0
5.898979339E0,-4.252194762E-1,-1.080531716E0,-3.814311981E0,3.987146383E0
5.903996787E0,-5.035951138E-1,-1.343090415E0,-4.571746826E0,4.791489220E0
5.909014235E0,-5.702045560E-1,-1.560932636E0,-5.375774384E0,5.626774756E0
5.914031683E0,-6.486794949E-1,-1.703602076E0,-6.183773041E0,6.446867002E0
5.919049131E0,-7.481856346E-1,-1.764204741E0,-6.986791611E0,7.244822781E0
5.924066578E0,-8.441342115E-1,-1.754804134E0,-7.685122013E0,7.927988425E0
5.929084026E0,-9.213185310E-1,-1.658874869E0,-8.227015495E0,8.443013539E0
5.934101474E0,-1.021362901E0,-1.584567308E0,-8.589427948E0,8.793879019E0
5.939118922E0,-1.090135455E0,-1.544853568E0,-8.806571960E0,9.007256938E0
5.944136370E0,-1.135762453E0,-1.543269753E0,-8.907768250E0,9.111529678E0
5.949153818E0,-1.109318256E0,-1.574317932E0,-8.869496346E0,9.076179227E0
5.954171266E0,-1.039004922E0,-1.633090973E0,-8.711062431E0,8.923515341E0
5.959188714E0,-9.154596329E-1,-1.710093260E0,-8.418114662E0,8.638700120E0
5.964206162E0,-7.635499239E-1,-1.757802248E0,-7.980929375E0,8.207807924E0
5.969223610E0,-5.504946113E-1,-1.738653183E0,-7.403975487E0,7.625274567E0
5.974241058E0,-3.100984097E-1,-1.562660933E0,-6.514698982E0,6.706666314E0
5.979258506E0,1.334802628E0,-7.454907894E-1,-1.405065536E0,2.076454607E0
5.984275953E0,4.094631195E0,3.512563705E-1,1.225581074E1,1.292649537E1
5.989293401E0,3.801051140E0,5.133941174E-1,1.603353500E1,1.648592757E1
5.994310849E0,2.033263683E0,7.564084530E-1,9.867758751E0,1.010341416E1
5.999328297E0,-5.278271437E-2,9.097070694E-1,6.207774162E0,6.274297811E0
6.004345745E0,-1.301559925E0,1.257281065E0,4.427700043E0,4.783235472E0
6.009363193E0,-2.047207355E0,1.348200440E0,3.658974648E0,4.404179589E0
6.014380641E0,-2.159828424E0,1.141133070E0,4.033887863E0,4.715855680E0
6.019398089E0,-1.170849800E0,9.614599943E-1,4.518045425E0,4.765294224E0
6.024415537E0,4.106804132E-1,9.603362083E-1,5.073503494E0,5.179897850E0
6.029432985E0,1.523198843E0,1.020454168E0,5.494938850E0,5.792738074E0
6.034450433E0,1.801370621E0,1.207150102E0,5.567447662E0,5.974832295E0
6.039467881E0,1.449698925E0,1.381299853E0,5.339140892E0,5.702283904E0
6.044485328E0,9.065808654E-1,1.461909175E0,5.034918785E0,5.320664853E0
6.049502776E0,3.222571611E-1,1.464078903E0,4.597228050E0,4.835481616E0
6.054520224E0,-7.749569416E-2,1.417555451E0,4.092943192E0,4.332164933E0
6.059537672E0,-1.821160913E-1,1.576182485E0,3.947689056E0,4.254617066E0
6.064555120E0,-3.306654096E-1,1.604211092E0,3.936340332E0,4.263520617E0
6.069572568E0,-4.654709101E-1,1.290505528E0,3.819789886E0,4.058677428E0
6.074590016E0,-5.054938197E-1,8.688350916E-1,3.622325897E0,3.759207805E0
6.079607464E0,-3.798304796E-1,4.531068802E-1,3.459103584E0,3.509269816E0
6.084624912E0,-1.474515200E-1,1.039716005E-1,3.344812393E0,3.349674908E0
6.089642360E0,7.503655553E-2,-1.180627346E-1,3.203257561E0,3.206310698E0
6.094659808E0,2.283148468E-1,-2.383778095E-1,2.948711395E0,2.967128333E0
6.099677256E0,2.719960809E-1,-3.345623016E-1,2.562436104E0,2.598459657E0
6.104694703E0,2.327403426E-1,-4.262911081E-1,2.073442459E0,2.129567047E0
6.109712151E0,1.276709437E-1,-5.186033249E-1,1.505867004E0,1.597774926E0
6.114729599E0,-6.922022998E-2,-6.116434336E-1,8.694381714E-1,1.065280181E0
6.119747047E0,-2.592567205E-1,-7.531218529E-1,1.594810486E-1,8.123058397E-1
6.124764495E0,-4.155535400E-1,-9.375656843E-1,-6.526613235E-1,1.215599013E0
6.129781943E0,-5.584517121E-1,-1.096667051E0,-1.538329124E0,1.970026251E0
6.134799391E0,-7.360451221E-1,-1.209407926E0,-2.449869633E0,2.829539038E0
6.139816839E0,-8.907161951E-1,-1.259525537E0,-3.339704990E0,3.678778240E0
6.144834287E0,-1.012366056E0,-1.292697668E0,-4.208213329E0,4.517190689E0
6.149851735E0,-1.129159093E0,-1.306522131E0,-5.065422535E0,5.351682520E0
6.154869131E0,-1.215978861E0,-1.351118565E0,-5.873603344E0,6.148442259E0
6.159886526E0,-1.281285167E0,-1.366719246E0,-6.590322495E0,6.851420565E0
6.164903922E0,-1.313913345E0,-1.345903039E0,-7.182918549E0,7.425102164E0
6.169921318E0,-1.287943959E0,-1.315363884E0,-7.633046627E0,7.851903120E0
6.174938714E0,-1.249195099E0,-1.287787557E0,-7.917562008E0,8.118292514E0
6.179956110E0,-1.176578522E0,-1.276206851E0,-8.070678711E0,8.255234448E0
6.184973506E0,-1.082647324E0,-1.289368033E0,-8.112089157E0,8.284961415E0
6.189990901E0,-9.233490825E-1,-1.283595681E0,-8.085281372E0,8.238444408E0
6.195008297E0,-7.363904715E-1,-1.277536273E0,-8.000126839E0,8.134887786E0
6.200025693E0,-4.976491630E-1,-1.237596154E0,-7.823258877E0,7.936162699E0
6.205043089E0,-2.700304091E-1,-1.120646715E0,-7.549940586E0,7.637432051E0
6.210060485E0,7.113188505E-3,-9.508959055E-1,-7.113064766E0,7.176346144E0
6.215077881E0,3.181060851E-1,-7.959463596E-1,-6.488486290E0,6.544858778E0
6.220095276E0,6.571573615E-1,-6.327888966E-1,-5.761951923E0,5.833726729E0
6.225112672E0,1.027868509E0,-4.623461962E-1,-4.956891537E0,5.083409425E0
6.230130068E0,1.538197517E0,-1.803796291E-1,-3.623166084E0,3.940294518E0
6.235147464E0,4.000722408E0,9.482104778E-1,4.065145493E0,5.781893355E0
6.240164860E0,6.059377193E0,1.750045538E0,1.686458969E1,1.800536300E1
6.245182256E0,4.396069527E0,1.480083466E0,1.749605942E1,1.810050191E1
6.250199651E0,2.260987043E0,1.342767358E0,1.091365147E1,1.122599104E1
6.255217047E0,4.970904589E-1,1.454368949E0,6.670608521E0,6.845385745E0
6.260234443E0,-5.561108589E-1,1.470105052E0,5.193770409E0,5.426390993E0
6.265251839E0,-6.858976483E-1,1.206417441E0,4.479941368E0,4.689965169E0
6.270269235E0,-7.557287216E-1,8.516319990E-1,4.427310944E0,4.571376724E0
6.275286631E0,-8.818666935E-1,5.492854118E-1,4.781397820E0,4.892971330E0
6.280304026E0,-8.600463867E-1,3.558561802E-1,5.068156242E0,5.152913846E0
6.285321422E0,-3.919610977E-1,3.468352556E-1,5.019849777E0,5.047060529E0
6.290338818E0,3.504291177E-1,5.309014320E-1,4.723013878E0,4.765660184E0
6.295356214E0,9.888284802E-1,8.739068508E-1,4.354969978E0,4.550522878E0
6.300373610E0,9.730562568E-1,1.059641004E0,4.006751060E0,4.257197622E0
6.305391006E0,6.047279835E-1,1.116734385E0,3.769280434E0,3.977469875E0
6.310408401E0,3.426258266E-1,1.049639225E0,3.518222809E0,3.687414635E0
6.315425797E0,2.290159464E-1,8.484407663E-1,3.253737450E0,3.370327496E0
6.320443193E0,2.152674794E-1,5.939667225E-1,3.004708290E0,3.070408517E0
6.325460589E0,2.423040271E-1,3.330904245E-1,2.618343353E0,2.650543791E0
6.330477985E0,2.938176394E-1,1.082866192E-1,2.123712540E0,2.146674113E0
6.335495381E0,2.433471382E-1,-7.107985020E-2,1.597604752E0,1.617594237E0
6.340512776E0,6.058423221E-2,-1.907135248E-1,1.040145874E0,1.059219305E0
6.345530172E0,-2.073744088E-1,-2.741698027E-1,4.704999924E-1,5.827035858E-1
6.350547620E0,-4.703308344E-1,-4.023624659E-1,-1.495847702E-1,6.367748827E-1
6.355565068E0,-7.004143596E-1,-5.841149092E-1,-8.487873077E-1,1.245877360E0
6.360582516E0,-8.891137838E-1,-7.371209860E-1,-1.622313499E0,1.991424555E0
6.365599964E0,-1.075526595E0,-8.455702066E-1,-2.412882328E0,2.773760545E0
6.370617412E0,-1.226214409E0,-8.979988098E-1,-3.177752972E0,3.522515804E0
6.375634860E0,-1.345297575E0,-9.162367582E-1,-3.864751816E0,4.193521427E0
6.380652308E0,-1.407751203E0,-9.366449118E-1,-4.440907955E0,4.751918624E0
6.385669756E0,-1.450747132E0,-9.718410969E-1,-4.921113968E0,5.221733912E0
6.390687203E0,-1.463518977E0,-1.039422989E0,-5.377627850E0,5.669318234E0
6.395704651E0,-1.473843098E0,-1.142824054E0,-5.748686790E0,6.043646259E0
6.400722099E0,-1.442191005E0,-1.204335809E0,-6.006071568E0,6.293110146E0
6.405739547E0,-1.391113758E0,-1.237621188E0,-6.183689117E0,6.457934251E0
6.410756995E0,-1.305143356E0,-1.275562763E0,-6.272325516E0,6.532421214E0
6.415774443E0,-1.197958231E0,-1.308358669E0,-6.353527069E0,6.596530342E0
6.420791891E0,-1.040932178E0,-1.307295084E0,-6.384298325E0,6.599380678E0
6.425809339E0,-8.441287279E-1,-1.267550230E0,-6.359919548E0,6.539710510E0
6.430826787E0,-6.175194383E-1,-1.174892306E0,-6.246919632E0,6.386368849E0
6.435844235E0,-3.904583752E-1,-1.086992979E0,-6.035698891E0,6.145215422E0
6.440861683E0,-1.683960706E-1,-1.023230314E0,-5.788367748E0,5.880523676E0
6.445879131E0,3.359523416E-2,-9.553267956E-1,-5.461672783E0,5.544695439E0
6.450896578E0,2.479290068E-1,-8.404365778E-1,-5.103299618E0,5.177979280E0
6.455914026E0,6.689177155E-1,-5.979058743E-1,-4.244238377E0,4.338029707E0
6.460931474E0,2.427290201E0,2.653632164E-1,4.780035019E-1,2.488100220E0
6.465948922E0,4.213852882E0,1.113629103E0,9.558113098E0,1.050496320E1
6.470966370E0,3.591191292E0,1.112752795E0,1.203060722E1,1.260437955E1
6.475983818E0,1.211998940E0,8.812990189E-1,7.668407440E0,7.813456473E0
6.481001266E0,-2.927845716E-1,7.440509796E-1,5.426620483E0,5.485211440E0
6.486018714E0,-8.136165142E-1,8.141524792E-1,4.991353035E0,5.122345284E0
6.491036162E0,-9.980440140E-1,6.913871765E-1,4.614489555E0,4.771542931E0
6.496053610E0,-9.748616219E-1,5.351400375E-1,4.596997261E0,4.729599757E0
6.501071058E0,-4.809515774E-1,5.085021257E-1,4.584447861E0,4.637569516E0
6.506088506E0,3.687673211E-1,6.204557419E-1,4.552977562E0,4.609832898E0
6.511105953E0,1.069352508E0,7.361662388E-1,4.507389069E0,4.690630206E0
6.516123401E0,1.346257210E0,8.506793976E-1,4.332789421E0,4.616181114E0
6.521140849E0,1.235798597E0,9.401183128E-1,4.005270004E0,4.295719779E0
6.526158297E0,9.828106761E-1,1.023919463E0,3.515368462E0,3.791060975E0
6.531175745E0,6.681984663E-1,1.059175730E0,3.040244102E0,3.288073390E0
6.536193193E0,3.487797379E-1,1.222987413E0,2.651637077E0,2.940837416E0
6.541210641E0,2.898776531E-2,1.223411679E0,2.272955894E0,2.581454033E0
6.546228089E0,-2.956994176E-1,9.119520187E-1,2.100333214E0,2.308786313E0
6.551245537E0,-5.151929259E-1,5.415127277E-1,2.014101982E0,2.148317151E0
6.556262985E0,-5.917989016E-1,2.210662365E-1,1.952189445E0,2.051862532E0
6.561280433E0,-5.697270632E-1,-3.643441200E-2,1.862224579E0,1.947767125E0
6.566297881E0,-5.462679863E-1,-1.604232788E-1,1.639282227E0,1.735335864E0
6.571315328E0,-5.326498151E-1,-1.900644302E-1,1.321984291E0,1.437874396E0
6.576332776E0,-5.398399830E-1,-1.733654737E-1,9.583578110E-1,1.113522559E0
6.581350224E0,-5.876540542E-1,-1.436107159E-1,6.345520020E-1,8.767083713E-1
6.586367672E0,-6.620706320E-1,-1.482270956E-1,3.217973709E-1,7.509076784E-1
6.591385120E0,-7.055910826E-1,-2.107696533E-1,-5.645465851E-2,7.385592400E-1
6.596402568E0,-7.323306799E-1,-3.400526047E-1,-4.523763657E-1,9.255205967E-1
6.601420016E0,-7.276967764E-1,-4.779248238E-1,-9.377574921E-1,1.279587375E0
6.606437464E0,-6.869145632E-1,-6.089947224E-1,-1.483928680E0,1.744927081E0
6.611454912E0,-6.721345186E-1,-7.321413755E-1,-2.076629639E0,2.302213383E0
6.616472360E0,-6.787852645E-1,-8.080303669E-1,-2.672930717E0,2.873712082E0
6.621489808E0,-6.685731411E-1,-8.449554443E-1,-3.268288136E0,3.441314732E0
6.626507256E0,-6.799603105E-1,-8.702278137E-1,-3.867768288E0,4.022346827E0
6.631524703E0,-6.892803311E-1,-8.729237318E-1,-4.419054508E0,4.556878972E0
6.636542151E0,-7.107457519E-1,-8.613196611E-1,-4.826871872E0,4.954364051E0
6.641559599E0,-6.579561234E-1,-8.488271236E-1,-5.182523251E0,5.292632709E0
6.646577047E0,-5.831950903E-1,-8.490492105E-1,-5.462383270E0,5.558653800E0
6.651594495E0,-4.481570125E-1,-8.853920698E-1,-5.700175285E0,5.785910655E0
6.656611943E0,-2.961318493E-1,-9.047716856E-1,-5.853036404E0,5.929952868E0
6.661629391E0,-1.176935881E-1,-8.829145432E-1,-5.949862003E0,6.016165534E0
6.666646839E0,6.801030040E-2,-8.291506767E-1,-5.947742939E0,6.005644205E0
6.671664235E0,2.609573007E-1,-7.575819492E-1,-5.904227734E0,5.958349961E0
6.676681631E0,4.368392527E-1,-6.680492163E-1,-5.804997921E0,5.859617663E0
6.681699026E0,6.091378927E-1,-5.413045883E-1,-5.511350632E0,5.571269641E0
6.686716422E0,7.586128712E-1,-4.347449541E-1,-5.056899548E0,5.131932355E0
6.691733818E0,9.146592021E-1,-2.862330675E-1,-4.432158470E0,4.534595851E0
6.696751214E0,1.694850326E0,2.756247520E-1,-9.491958618E-1,1.962003928E0
6.701768610E0,2.565032959E0,7.524917126E-1,7.317337036E0,7.790318296E0
6.706786006E0,1.429446697E0,3.781677485E-1,1.064972878E1,1.075188596E1
6.711803401E0,3.547239304E-1,3.081516027E-1,6.992718697E0,7.008487800E0
6.716820797E0,-1.178290248E-1,4.536263943E-1,4.460338593E0,4.484894753E0
6.721838193E0,-5.884398222E-1,6.013754606E-1,4.882522583E0,4.954486920E0
6.726855589E0,-8.594169021E-1,5.795112848E-1,5.079907417E0,5.184581961E0
6.731872985E0,-8.782474995E-1,5.320508480E-1,5.033575058E0,5.137243876E0
6.736890381E0,-5.732912421E-1,5.118261576E-1,4.863345146E0,4.923693215E0
6.741907776E0,3.662049770E-3,5.140823126E-1,4.497550011E0,4.526836659E0
6.746925172E0,5.434191227E-1,5.823950768E-1,4.074901581E0,4.152024959E0
6.751942568E0,8.525562286E-1,7.366319895E-1,3.690805435E0,3.858953689E0
6.756959964E0,7.133025527E-1,8.767468929E-1,3.325862885E0,3.512669864E0
6.761977360E0,5.043056607E-1,1.117757320E0,3.018250465E0,3.257843075E0
6.766994756E0,2.444107533E-1,1.396869302E0,2.897129059E0,3.225575491E0
6.772012151E0,-5.249720812E-2,1.321221113E0,2.804597855E0,3.100669333E0
6.777029547E0,-2.479502559E-1,1.110690713E0,2.793356895E0,3.016281806E0
6.782046943E0,-2.844502330E-1,8.651989698E-1,2.868208885E0,3.009336040E0
6.787064339E0,-2.382665873E-1,6.652330160E-1,2.967023849E0,3.050005976E0
6.792081735E0,-1.766773760E-1,5.288343430E-1,3.008697510E0,3.059925058E0
6.797099131E0,-1.292853057E-1,3.973470926E-1,3.012719154E0,3.041558171E0
6.802116526E0,-1.166746020E-1,2.743140459E-1,2.893373489E0,2.908688933E0
6.807133922E0,-1.545462459E-1,1.251209974E-1,2.689365387E0,2.696706508E0
6.812151318E0,-2.156349272E-1,-9.420585632E-2,2.362804413E0,2.374493179E0
6.817168714E0,-2.872245014E-1,-3.268980980E-1,1.861466408E0,1.911653072E0
6.822186110E0,-3.567582369E-1,-5.346726179E-1,1.219155312E0,1.378220201E0
6.827203506E0,-4.258584976E-1,-6.212322712E-1,4.982042313E-1,9.030462064E-1
6.832220901E0,-5.240811110E-1,-6.572746038E-1,-2.440252304E-1,8.753394934E-1
6.837238297E0,-6.375821829E-1,-6.943258047E-1,-9.693870544E-1,1.352150370E0
6.842255693E0,-7.238063812E-1,-8.125952482E-1,-1.744995117E0,2.056505452E0
6.847273089E0,-7.784292102E-1,-9.487686157E-1,-2.561368942E0,2.840198018E0
6.852290485E0,-8.068199158E-1,-1.087179899E0,-3.428235531E0,3.685880813E0
6.857307881E0,-8.380860686E-1,-1.163801074E0,-4.321977139E0,4.553713604E0
6.862325276E0,-8.625943065E-1,-1.181188226E0,-5.190453053E0,5.392594686E0
6.867342724E0,-8.799262047E-1,-1.166024923E0,-5.991158962E0,6.166674141E0
6.872360172E0,-8.794482350E-1,-1.154589534E0,-6.667330742E0,6.823474585E0
6.877377620E0,-8.651793003E-1,-1.144974113E0,-7.291411400E0,7.431297406E0
6.882395068E0,-8.126627207E-1,-1.111675262E0,-7.792230129E0,7.912969921E0
6.887412516E0,-7.018637657E-1,-1.053098202E0,-8.156114578E0,8.253716350E0
6.892429964E0,-5.650494695E-1,-9.871920347E-1,-8.383658409E0,8.460470279E0
6.897447412E0,-3.814888299E-1,-9.466369152E-1,-8.432301521E0,8.493842718E0
6.902464860E0,-1.832112521E-1,-9.451910257E-1,-8.355090141E0,8.410379522E0
6.907482308E0,3.076991439E-2,-9.826480150E-1,-8.176156044E0,8.235051400E0
6.912499756E0,2.225037217E-1,-1.059140205E0,-7.957699776E0,8.030957079E0
6.917517203E0,3.774575591E-1,-1.131600499E0,-7.690064907E0,7.782036506E0
6.922534651E0,4.517804682E-1,-1.157239676E0,-7.310855865E0,7.415653899E0
6.927552099E0,4.878024161E-1,-1.131717920E0,-6.829395771E0,6.939696193E0
6.932569547E0,4.891357422E-1,-1.055514574E0,-6.231005669E0,6.338674659E0
6.937586995E0,5.546536446E-1,-9.385454655E-1,-5.457934380E0,5.565748463E0
6.942604443E0,9.385407567E-1,-4.904260635E-1,-2.142476559E0,2.389891688E0
6.947621891E0,3.527693033E0,5.086122751E-1,1.479025555E1,1.521364400E1
6.952639339E0,3.614499331E0,3.631157875E-1,2.097488785E1,2.128714116E1
6.957656787E0,2.822481155E0,6.688029766E-1,1.419133663E1,1.448474137E1
6.962674235E0,5.591059327E-1,1.003132939E0,6.711619377E0,6.809163664E0
6.967691683E0,-1.379489899E0,1.279201388E0,4.393931389E0,4.779747025E0
6.972709131E0,-2.220006227E0,9.225976467E-1,4.208127022E0,4.846436536E0
6.977726578E0,-2.307525158E0,5.379781723E-1,4.807179451E0,5.359390557E0
6.982744026E0,-1.525017500E0,3.539113998E-1,5.812274933E0,6.019424520E0
6.987761474E0,1.287285686E-1,3.676753044E-1,6.319257736E0,6.331253787E0
6.992778922E0,1.348809242E0,4.579954147E-1,6.084913254E0,6.249417211E0
6.997796370E0,1.783531189E0,6.583899260E-1,5.463881493E0,5.785193321E0
7.002813818E0,1.607216835E0,9.219040871E-1,4.819834709E0,5.163706007E0
7.007831266E0,1.078946114E0,1.158651710E0,4.171735764E0,4.462059814E0
7.012848714E0,1.990180612E-1,1.307360768E0,3.710761070E0,3.939358842E0
7.017866162E0,-8.550353646E-1,1.354165554E0,3.403142929E0,3.761147646E0
7.022883610E0,-1.337305784E0,1.241964817E0,3.105247498E0,3.601864155E0
7.027901058E0,-1.406490088E0,9.900383949E-1,2.907983780E0,3.378573672E0
7.032918506E0,-1.201623678E0,6.696678400E-1,2.820919037E0,3.138461198E0
7.037935953E0,-7.946785688E-1,3.422330618E-1,2.815404892E0,2.945359435E0
7.042953401E0,-3.538094759E-1,1.069228649E-1,2.834235191E0,2.858234204E0
7.047970849E0,-4.443049431E-3,-2.327024937E-2,2.820306778E0,2.820406277E0
7.052988297E0,2.145985067E-1,-6.398677826E-2,2.716557503E0,2.725771724E0
7.058005745E0,3.027619421E-1,-1.024081707E-1,2.504240036E0,2.524553502E0
7.063023193E0,3.163496256E-1,-2.401863337E-1,2.145571709E0,2.182027616E0
7.068040641E0,2.531240582E-1,-4.495021105E-1,1.583686829E0,1.665589357E0
7.073058089E0,1.534243673E-1,-6.925418377E-1,8.860540390E-1,1.135008808E0
7.078075537E0,4.991665483E-3,-9.261891246E-1,3.864669800E-2,9.270085105E-1
7.083092985E0,-1.947924942E-1,-1.140080214E0,-9.583549500E-1,1.502055664E0
7.088110433E0,-4.575388432E-1,-1.313783884E0,-2.033153534E0,2.463550929E0
7.093127881E0,-7.462881207E-1,-1.383445024E0,-3.142835140E0,3.514011783E0
7.098145328E0,-1.033286810E0,-1.380175352E0,-4.278190136E0,4.612534712E0
7.103162776E0,-1.266307235E0,-1.334798336E0,-5.329689503E0,5.638334045E0
7.108180224E0,-1.415629864E0,-1.301821947E0,-6.278908730E0,6.566844229E0
7.113197672E0,-1.469731688E0,-1.283149600E0,-7.117078781E0,7.379660867E0
7.118215120E0,-1.450507760E0,-1.276080608E0,-7.816359043E0,8.051572714E0
7.123232568E0,-1.350707650E0,-1.239786506E0,-8.339447021E0,8.538609861E0
7.128250016E0,-1.172323823E0,-1.200830460E0,-8.730377197E0,8.890209387E0
7.133267464E0,-9.321736097E-1,-1.171826839E0,-9.013936043E0,9.137459645E0
7.138284912E0,-6.521358490E-1,-1.170574665E0,-9.147830009E0,9.245448615E0
7.143302360E0,-3.404978514E-1,-1.153039098E0,-9.170971870E0,9.249441226E0
7.148319808E0,-6.375801563E-2,-1.161515236E0,-9.098167419E0,9.172231632E0
7.153337256E0,2.160540223E-1,-1.157378912E0,-8.915261269E0,8.992668612E0
7.158354703E0,4.692091644E-1,-1.121403217E0,-8.574428558E0,8.660169024E0
7.163372151E0,6.795752645E-1,-1.058361769E0,-8.085115433E0,8.182361746E0
7.168389599E0,8.742101192E-1,-9.399141073E-1,-7.423058510E0,7.533225040E0
7.173407047E0,1.070833683E0,-7.472926378E-1,-6.544808388E0,6.673803106E0
7.178424495E0,1.339806914E0,-4.190987349E-1,-5.143748760E0,5.331873744E0
7.183441943E0,2.332725286E0,4.328300953E-1,1.156387329E0,2.639352346E0
7.188459391E0,4.311829090E0,1.299572110E0,1.739630890E1,1.796976130E1
7.193476839E0,4.708800793E0,1.186421990E0,2.514065170E1,2.560532699E1
7.198494235E0,4.118609428E0,1.550102353E0,1.637730408E1,1.695823840E1
7.203511631E0,2.479788065E0,2.002197504E0,7.773039818E0,8.401088721E0
7.208529026E0,1.429319978E-1,1.949666142E0,4.710724831E0,5.100250587E0
7.213546422E0,-8.282771707E-1,1.753307462E0,3.351232529E0,3.871807018E0
7.218563818E0,-1.396666765E0,1.525830984E0,3.691784859E0,4.231797926E0
7.223581214E0,-1.793931723E0,1.170481801E0,5.108237267E0,5.539161186E0
7.228598610E0,-1.824919939E0,7.368562222E-1,6.518223763E0,6.808856798E0
7.233616006E0,-1.139431119E0,3.654074669E-1,7.247291565E0,7.345410875E0
7.238633401E0,-1.420787573E-1,2.737125158E-1,7.377586365E0,7.384029082E0
7.243650797E0,3.780774474E-1,3.020514250E-1,7.364310265E0,7.380192632E0
7.248668193E0,5.547186732E-1,3.058007956E-1,7.231789589E0,7.259477088E0
7.253685589E0,5.680291057E-1,3.318668604E-1,7.037961960E0,7.068642106E0
7.258702985E0,5.257493258E-1,4.270856380E-1,6.855133057E0,6.888516801E0
7.263720381E0,4.112287760E-1,4.899853468E-1,6.506871223E0,6.538238896E0
7.268737776E0,2.597257793E-1,3.998501301E-1,5.955739975E0,5.974795081E0
7.273755172E0,1.251225770E-1,1.223106384E-1,5.193055153E0,5.196002057E0
7.278772568E0,4.674628377E-2,-2.952424288E-1,4.219634056E0,4.230208609E0
7.283789964E0,3.060734272E-2,-7.428420782E-1,3.045763969E0,3.135192071E0
7.288807360E0,6.635829806E-3,-1.157656193E0,1.695900917E0,2.053361102E0
7.293824756E0,-1.045182794E-1,-1.442190647E0,1.607456207E-1,1.454880438E0
7.298842151E0,-2.910268307E-1,-1.488106966E0,-1.588457108E0,2.195986098E0
7.303859547E0,-6.359214783E-1,-1.320243597E0,-3.250758648E0,3.565791787E0
7.308876943E0,-9.764189124E-1,-1.116832852E0,-4.745657921E0,4.972120133E0
7.313894339E0,-1.263656378E0,-1.007642865E0,-6.193876266E0,6.401271342E0
7.318911735E0,-1.472293019E0,-1.050699711E0,-7.524838448E0,7.739173747E0
7.323929131E0,-1.605295420E0,-1.175196409E0,-8.625112534E0,8.851588908E0
7.328946526E0,-1.655450463E0,-1.315511823E0,-9.539314270E0,9.770854842E0
7.333963922E0,-1.605267286E0,-1.445022464E0,-1.015414524E1,1.038131199E1
7.338981318E0,-1.499457479E0,-1.542761922E0,-1.057627678E1,1.079287346E1
7.343998714E0,-1.335108042E0,-1.631054044E0,-1.084525490E1,1.104818558E1
7.349016110E0,-1.128962040E0,-1.665842652E0,-1.095730591E1,1.114056281E1
7.354033506E0,-8.938107491E-1,-1.680223823E0,-1.096575832E1,1.112968577E1
7.359050901E0,-6.718964577E-1,-1.664182544E0,-1.088546753E1,1.103242275E1
7.364068297E0,-4.534054399E-1,-1.646726012E0,-1.064476395E1,1.078092216E1
7.369085693E0,-2.438464016E-1,-1.647608042E0,-1.037739468E1,1.051020426E1
7.374103089E0,-7.371404767E-2,-1.648444414E0,-1.002540207E1,1.016028983E1
7.379120485E0,9.773313999E-2,-1.631276965E0,-9.564100266E0,9.702712517E0
7.384137881E0,2.299477160E-1,-1.568518281E0,-8.959215164E0,9.098387874E0
7.389155328E0,4.021065235E-1,-1.461394429E0,-8.229044914E0,8.367469363E0
7.394172776E0,6.454918981E-1,-1.321086764E0,-7.343901634E0,7.489647605E0
7.399190224E0,9.539414644E-1,-1.149321198E0,-6.197635651E0,6.375078917E0
7.404207672E0,1.258893967E0,-9.242763519E-1,-4.899374485E0,5.142272954E0
7.409225120E0,1.592760563E0,-7.537919283E-1,-3.185071468E0,3.640023179E0
7.414242568E0,2.410818338E0,-1.510837078E-1,5.923257828E0,6.396862875E0
7.419260016E0,4.350633144E0,3.001036644E-1,3.323146820E1,3.351639225E1
7.424277464E0,4.273085117E0,7.550835609E-2,3.251844406E1,3.279808168E1
7.429294912E0,3.607111216E0,9.491405487E-1,1.398544598E1,1.447428127E1
7.434312360E0,8.686412573E-1,1.720896363E0,6.642902374E0,6.916948307E0
7.439329808E0,-8.862186074E-1,1.674649835E0,3.463497162E0,3.947866269E0
7.444347256E0,-1.588520050E0,1.249372840E0,2.273987770E0,3.042260479E0
7.449364703E0,-2.235841274E0,7.259377241E-1,3.353196144E0,4.095106368E0
7.454382151E0,-2.511395931E0,2.610807419E-1,5.521353722E0,6.071294722E0
7.459399599E0,-1.657318830E0,1.917719841E-2,6.868800163E0,7.065938660E0
7.464417047E0,2.867412567E-2,1.031322479E-1,6.617246628E0,6.618112374E0
7.469434495E0,1.376164794E0,3.446061611E-1,5.734950066E0,5.907811372E0
7.474451943E0,1.805843234E0,7.059336901E-1,4.763042450E0,5.142566046E0
7.479469391E0,1.423533320E0,1.087902784E0,3.907102585E0,4.298305502E0
7.484486839E0,7.940917015E-1,1.467847943E0,3.233783722E0,3.639026845E0
7.489504287E0,1.803936362E-1,1.554823875E0,2.781045914E0,3.191274905E0
7.494521735E0,-1.827782989E-1,1.459503889E0,2.505515099E0,2.905368379E0
7.499539183E0,-2.520207167E-1,1.253878832E0,2.344786644E0,2.670908267E0
7.504556631E0,-9.482091665E-2,9.566187859E-1,2.241493225E0,2.438934683E0
7.509574078E0,1.302021742E-1,6.579082012E-1,2.171885490E0,2.273077735E0
7.514591526E0,2.975184321E-1,4.143379927E-1,2.054894447E0,2.117258694E0
7.519608974E0,3.393334448E-1,2.201859951E-1,1.895635605E0,1.938314579E0
7.524626422E0,2.071786225E-1,5.556273460E-2,1.675271034E0,1.688947376E0
7.529643870E0,-1.848077774E-2,-1.954795122E-1,1.351161957E0,1.365354317E0
7.534661318E0,-2.629456520E-1,-5.432556868E-1,8.376646042E-1,1.032448132E0
7.539678766E0,-4.902958274E-1,-8.301964998E-1,1.830530167E-1,9.813891346E-1
7.544696214E0,-7.316312194E-1,-9.988644719E-1,-5.406665802E-1,1.351049527E0
7.549713662E0,-9.934922457E-1,-1.077574730E0,-1.242568016E0,1.921501865E0
7.554731110E0,-1.210414290E0,-1.132921934E0,-1.937067986E0,2.549675910E0
7.559748558E0,-1.359834194E0,-1.231372833E0,-2.657705307E0,3.229369225E0
7.564766006E0,-1.457321525E0,-1.381354809E0,-3.462013721E0,4.002182672E0
7.569783453E0,-1.565716505E0,-1.495075107E0,-4.278462887E0,4.794993475E0
7.574800901E0,-1.646725774E0,-1.560912728E0,-5.064437389E0,5.549475686E0
7.579818349E0,-1.689570785E0,-1.562082052E0,-5.748824120E0,6.192231305E0
7.584835797E0,-1.720679283E0,-1.558552980E0,-6.327577591E0,6.740034329E0
7.589853245E0,-1.714127183E0,-1.562715769E0,-6.834891796E0,7.217759932E0
7.594870693E0,-1.668254972E0,-1.548800588E0,-7.247549057E0,7.596632494E0
7.599888141E0,-1.586477995E0,-1.529745102E0,-7.542283058E0,7.857675625E0
7.604905589E0,-1.410120964E0,-1.480570793E0,-7.738816738E0,8.004362280E0
7.609923037E0,-1.161832929E0,-1.419639468E0,-7.866341114E0,8.077410135E0
7.614940485E0,-8.407627940E-1,-1.384424806E0,-7.915717125E0,8.079733394E0
7.619957933E0,-4.609270692E-1,-1.341075778E0,-7.906322479E0,8.032488603E0
7.624975381E0,-7.053929567E-2,-1.293941021E0,-7.814412594E0,7.921130181E0
7.629992828E0,2.913415432E-1,-1.223736286E0,-7.654355526E0,7.757033512E0
7.635010276E0,6.664047241E-1,-1.106297731E0,-7.392595291E0,7.504562283E0
7.640027724E0,1.019648910E0,-9.366034269E-1,-6.952485085E0,7.089002661E0
7.645045172E0,1.345454454E0,-6.813298464E-1,-6.300359726E0,6.478347839E0
7.650062620E0,1.672160149E0,-3.695229292E-1,-5.369041443E0,5.635536600E0
7.655080068E0,2.433687210E0,2.458093166E-1,-1.862761021E0,3.074594978E0
7.660097516E0,4.611459732E0,1.287711978E0,1.162416363E1,1.257159270E1
7.665114964E0,4.324147224E0,1.181428671E0,2.042361450E1,2.090975974E1
7.670132412E0,3.358020544E0,1.369820714E0,1.809737396E1,1.845718438E1
7.675149860E0,2.777812481E0,2.150248051E0,1.009737873E1,1.069097124E1
7.680167308E0,9.980378747E-1,2.226091862E0,5.472941399E0,5.992049076E0
7.685184756E0,-1.085235476E-1,1.715530157E0,2.740482330E0,3.234975190E0
7.690202203E0,-6.484956145E-1,1.345963001E0,2.059121132E0,2.544040644E0
7.695219651E0,-1.299359083E0,9.888693094E-1,3.019194603E0,3.432452853E0
7.700237099E0,-1.660384774E0,6.376701593E-1,4.437088013E0,4.780298198E0
7.705254547E0,-1.391083717E0,3.953661919E-1,5.417771339E0,5.607465971E0
7.710271995E0,-6.955792308E-1,3.796418905E-1,5.722706795E0,5.777311787E0
7.715289443E0,2.531755567E-1,6.609033346E-1,5.496349335E0,5.541727807E0
7.720306891E0,7.611542940E-1,1.104213715E0,5.212924957E0,5.382678738E0
7.725324339E0,6.897960305E-1,1.259532452E0,4.963455200E0,5.167023136E0
7.730341735E0,4.169228673E-1,1.189002752E0,4.819790840E0,4.981760328E0
7.735359131E0,1.720628738E-1,1.036083221E0,4.781934738E0,4.895914002E0
7.740376526E0,6.499284506E-2,8.143382072E-1,4.859575272E0,4.927762434E0
7.745393922E0,1.098381877E-1,5.849388838E-1,4.866368294E0,4.902627693E0
7.750411318E0,2.003885508E-1,3.615338802E-1,4.659263611E0,4.677563438E0
7.755428714E0,2.775711119E-1,1.913162470E-1,4.281958580E0,4.295208599E0
7.760446110E0,2.625756562E-1,1.974582672E-3,3.778106689E0,3.787220621E0
7.765463506E0,1.339179575E-1,-2.690610886E-1,3.119535446E0,3.133979784E0
7.770480901E0,-5.360017717E-2,-5.740731955E-1,2.311523438E0,2.382346242E0
7.775498297E0,-2.833058536E-1,-9.033529758E-1,1.416631699E0,1.703864483E0
7.780515693E0,-5.430449247E-1,-1.203707457E0,4.446067810E-1,1.393371674E0
7.785533089E0,-7.873175144E-1,-1.431222916E0,-6.570940018E-1,1.760693167E0
7.790550485E0,-1.028208733E0,-1.594143391E0,-1.893266678E0,2.680105420E0
7.795567881E0,-1.258197427E0,-1.657099962E0,-3.134972095E0,3.762591007E0
7.800585276E0,-1.478583813E0,-1.680063844E0,-4.373121738E0,4.912536855E0
7.805602672E0,-1.660661221E0,-1.660210371E0,-5.608392715E0,6.080144983E0
7.810620068E0,-1.775231719E0,-1.656754494E0,-6.769827366E0,7.192137768E0
7.815637464E0,-1.849653006E0,-1.628079176E0,-7.805862904E0,8.185557630E0
7.820654860E0,-1.848763943E0,-1.609474301E0,-8.665009499E0,9.005038881E0
7.825672256E0,-1.755924344E0,-1.540822029E0,-9.310206413E0,9.598820047E0
7.830689651E0,-1.582902908E0,-1.477240205E0,-9.761795998E0,9.999024019E0
7.835707047E0,-1.321992159E0,-1.431313992E0,-9.987374306E0,1.017565568E1
7.840724443E0,-9.658775330E-1,-1.406959772E0,-1.006430817E1,1.020797502E1
7.845741839E0,-5.265003443E-1,-1.427374125E0,-1.002197266E1,1.013679118E1
7.850759235E0,-5.955055356E-2,-1.453955173E0,-9.899070740E0,1.000545518E1
7.855776631E0,3.351498842E-1,-1.486598134E0,-9.753196716E0,9.871532082E0
7.860794026E0,6.570947766E-1,-1.472763181E0,-9.531654358E0,9.667121585E0
7.865811422E0,9.001411796E-1,-1.422405601E0,-9.152863503E0,9.306363529E0
7.870828818E0,1.086771250E0,-1.336258769E0,-8.625974655E0,8.796254771E0
7.875846214E0,1.177162409E0,-1.210273862E0,-7.974366188E0,8.151134293E0
7.880863610E0,1.241907001E0,-1.040274620E0,-7.140062332E0,7.321543170E0
7.885881006E0,1.298707485E0,-8.465509415E-1,-5.997976303E0,6.195079448E0
7.890898401E0,1.399326801E0,-6.881170273E-1,-4.676540375E0,4.929670417E0
7.895915797E0,1.649538517E0,-5.045825243E-1,-2.409806252E0,2.963569978E0
7.900933193E0,2.802708149E0,3.518387079E-1,9.816510201E0,1.021483411E1
7.905950589E0,3.589165926E0,5.056575537E-1,2.790283585E1,2.813727154E1
7.910967985E0,2.903439999E0,2.506151199E-1,2.645108795E1,2.661114101E1
7.915985433E0,3.156209946E0,1.254547000E0,1.388008499E1,1.428958742E1
7.921002881E0,1.086705685E0,1.736237407E0,7.609807968E0,7.880648888E0
7.926020328E0,-4.656466246E-1,1.442703843E0,4.253631592E0,4.515706243E0
7.931037776E0,-1.223502636E0,1.065852880E0,2.677599907E0,3.130901200E0
7.936055224E0,-2.013677597E0,7.763189077E-1,3.088957787E0,3.768186396E0
7.941072672E0,-2.468611956E0,5.448038578E-1,4.442084312E0,5.111063419E0
7.946090120E0,-2.073378086E0,4.074882269E-1,5.515892982E0,5.906777356E0
7.951107568E0,-7.340358496E-1,4.533300400E-1,5.813228607E0,5.876899148E0
7.956125016E0,4.923138618E-1,6.096384525E-1,5.631542206E0,5.685798062E0
7.961142464E0,7.736783624E-1,8.330152035E-1,5.325354576E0,5.445355259E0
7.966159912E0,5.786967874E-1,1.004000783E0,4.871026039E0,5.006975356E0
7.971177360E0,2.598240972E-1,1.060639739E0,4.493739128E0,4.624516901E0
7.976194808E0,-6.511664391E-2,9.835877419E-1,4.265440941E0,4.377861515E0
7.981212256E0,-2.298344970E-1,8.154404163E-1,4.147974968E0,4.233611142E0
7.986229703E0,-1.972962022E-1,6.271256208E-1,3.988501549E0,4.042320737E0
7.991247151E0,-7.436549664E-2,4.800252914E-1,3.710894585E0,3.742551686E0
7.996264599E0,4.614645243E-2,3.302494287E-1,3.349129677E0,3.365689197E0
8.001282047E0,9.987655282E-2,9.079301357E-2,2.874989510E0,2.878156246E0
8.006299495E0,3.665503860E-2,-2.296816111E-1,2.250729561E0,2.262715358E0
8.011316943E0,-1.028181165E-1,-5.550786257E-1,1.515074730E0,1.616828774E0
8.016334391E0,-3.013510108E-1,-8.711575270E-1,6.587772369E-1,1.133011614E0
8.021351839E0,-5.273180008E-1,-1.158342123E0,-3.179426193E-1,1.311833929E0
8.026369287E0,-7.103935480E-1,-1.324570417E0,-1.376766205E0,2.038291188E0
8.031386735E0,-8.805429339E-1,-1.363376856E0,-2.570431709E0,3.039945967E0
8.036404183E0,-1.062873483E0,-1.378041267E0,-3.707791328E0,4.095902136E0
8.041421631E0,-1.200221896E0,-1.471716166E0,-4.846673012E0,5.205451023E0
8.046439078E0,-1.268824816E0,-1.646846056E0,-6.054474831E0,6.401459507E0
8.051456526E0,-1.282833219E0,-1.775901198E0,-7.274441719E0,7.597169766E0
8.056473974E0,-1.256406188E0,-1.764616251E0,-8.363991737E0,8.639952824E0
8.061491422E0,-1.183725238E0,-1.566609383E0,-9.195203781E0,9.402512588E0
8.066508870E0,-1.048034310E0,-1.317797542E0,-9.731172562E0,9.875762538E0
8.071526318E0,-8.701856136E-1,-1.140378833E0,-1.004491901E1,1.014682635E1
8.076543766E0,-6.476095319E-1,-1.118910193E0,-1.022353554E1,1.030495206E1
8.081561214E0,-4.119981527E-1,-1.180577636E0,-1.030119896E1,1.037681098E1
8.086578662E0,-1.662513018E-1,-1.281751633E0,-1.020668411E1,1.028819359E1
8.091596110E0,8.138418198E-2,-1.422293067E0,-9.954725266E0,1.005614718E1
8.096613558E0,3.028781414E-1,-1.564093471E0,-9.578951836E0,9.710532520E0
8.101631006E0,4.841347337E-1,-1.673816919E0,-9.041101456E0,9.207473326E0
8.106648453E0,6.105104089E-1,-1.675355792E0,-8.403166771E0,8.590270762E0
8.111665901E0,6.670072079E-1,-1.545600891E0,-7.564238071E0,7.749288892E0
8.116683349E0,7.002692819E-1,-1.342996955E0,-6.581144810E0,6.753183316E0
8.121700797E0,8.150715828E-1,-1.102351427E0,-5.022768497E0,5.206507825E0
8.126718245E0,1.780105948E0,-2.248326540E-1,1.386078835E0,2.267276217E0
8.131735693E0,3.722529411E0,9.239766598E-1,1.871230698E1,1.910134525E1
8.136753141E0,5.013309479E0,1.131551266E0,2.529516983E1,2.581199909E1
8.141770589E0,4.256405354E0,1.476935506E0,1.808782578E1,1.864048729E1
8.146788037E0,2.127386093E0,2.067317963E0,1.057645416E1,1.098457818E1
8.151805485E0,8.018809557E-2,2.036836624E0,5.232017517E0,5.615081554E0
8.156822933E0,-9.295398593E-1,1.649644017E0,1.948722839E0,2.717147482E0
8.161840381E0,-1.400095463E0,1.438689351E0,1.224359512E0,2.351414589E0
8.166857828E0,-1.850421786E0,1.300211549E0,2.303894997E0,3.228396353E0
8.171875276E0,-1.607462049E0,1.256388783E0,3.945997238E0,4.442222554E0
8.176892724E0,-7.276719809E-1,1.309475422E0,5.006765366E0,5.226081880E0
8.181910172E0,2.664827704E-1,1.390461326E0,5.434190750E0,5.615587669E0
8.186927620E0,1.023457766E0,1.593911052E0,5.491994858E0,5.809477236E0
8.191945068E0,1.109447241E0,1.703915715E0,5.371921539E0,5.743843919E0
8.196962516E0,8.977988362E-1,1.777804375E0,5.260848999E0,5.625225625E0
8.201979964E0,6.987063885E-1,1.661856294E0,5.273870468E0,5.573478866E0
8.206997412E0,5.353569388E-1,1.331209421E0,5.526004791E0,5.709242903E0
8.212014860E0,4.554627538E-1,9.229972363E-1,5.830897331E0,5.921041623E0
8.217032308E0,4.870239496E-1,5.117667913E-1,6.040798187E0,6.081968457E0
8.222049756E0,5.474326611E-1,1.719818115E-1,6.051239014E0,6.078384149E0
8.227067203E0,5.575789213E-1,-1.271929741E-1,5.801005363E0,5.829128197E0
8.232084651E0,4.607839286E-1,-3.539729118E-1,5.291100502E0,5.322909277E0
8.237102099E0,2.429816127E-1,-5.191392899E-1,4.594109535E0,4.629728727E0
8.242119547E0,-6.634840369E-2,-7.097607851E-1,3.777599335E0,3.844270960E0
8.247136995E0,-3.986558616E-1,-9.787488580E-1,2.837163925E0,3.027602180E0
