"Time (s)","Linear Acceleration x (m/s^2)","Linear Acceleration y (m/s^2)","Linear Acceleration z (m/s^2)","Absolute acceleration (m/s^2)"
0.000000000E0,-1.419529319E-3,-9.310974181E-2,5.108261108E-2,1.062114506E-1
0.000000000E0,-1.429587603E-3,-8.760721982E-2,1.028900146E-1,1.351422354E-1
0.000000000E0,1.316659153E-2,-9.649910033E-2,9.729385376E-2,1.376645542E-1
0.000000000E0,-5.934834480E-4,-8.167839050E-2,2.052402496E-2,8.421963725E-2
3.414331000E-3,5.814433098E-5,-8.597518504E-2,-2.711391449E-2,9.014932158E-2
8.431258000E-3,-4.301801324E-3,-9.013314545E-2,-6.011676788E-2,1.084274651E-1
1.344818500E-2,-1.853460073E-2,-9.415338933E-2,-6.911277771E-2,1.182580576E-1
1.846646600E-2,2.312362194E-4,-9.798458219E-2,-5.905056000E-2,1.144027991E-1
2.348599800E-2,-5.055278540E-3,-8.273731172E-2,-1.583576202E-2,8.439069825E-2
2.850662300E-2,8.747726679E-3,-8.661110699E-2,5.076217651E-2,1.007710531E-1
3.352818500E-2,8.396342397E-3,-1.000011116E-1,7.407283783E-2,1.247297326E-1
3.855047700E-2,1.790213585E-2,-9.908844531E-2,4.496479034E-2,1.102761934E-1
4.357328900E-2,8.595123887E-3,-8.883920312E-2,2.560329437E-2,9.285369593E-2
4.859636200E-2,-4.795342684E-4,-9.297247231E-2,6.408691406E-3,9.319432325E-2
5.361943500E-2,4.715338349E-3,-8.762589097E-2,-7.878303528E-3,8.810561191E-2
5.863776800E-2,4.911839962E-3,-6.797511876E-2,-2.205276489E-2,7.163146921E-2
6.365506000E-2,-4.597678781E-3,-6.737999618E-2,-4.086303711E-2,7.893662228E-2
6.867235200E-2,-9.484320879E-3,-7.143430412E-2,-5.002593994E-2,8.772346787E-2
7.368964300E-2,-2.920329571E-4,-7.540428638E-2,-2.587795258E-2,7.972176690E-2
7.870688300E-2,-5.371555686E-3,-6.509663165E-2,2.656078339E-2,7.051170312E-2
8.372412300E-2,-1.025174558E-2,-7.391847670E-2,6.432056427E-2,9.851991917E-2
8.874136200E-2,-1.493789256E-2,-6.377682090E-2,4.953765869E-2,8.212553285E-2
9.375860200E-2,-5.133390427E-3,-7.276518643E-2,1.114082336E-2,7.379188301E-2
9.877584100E-2,-5.482137203E-5,-7.228375971E-2,-2.218341827E-2,7.561116961E-2
1.037930810E-1,-9.316816926E-3,-6.700728834E-2,-2.674102783E-2,7.274518773E-2
1.088103210E-1,-1.395922899E-2,-6.167173386E-2,-2.176952362E-2,6.687432235E-2
1.138275600E-1,-1.866480708E-2,-6.112816930E-2,-1.684188843E-2,6.609597046E-2
1.188448000E-1,-4.440248013E-3,-7.953161001E-2,-2.460479736E-3,7.969345490E-2
1.238620390E-1,-4.631221294E-3,-6.449066103E-2,7.049560547E-3,6.503990986E-2
1.288792790E-1,-2.057850361E-5,-5.432356894E-2,1.173305511E-2,5.557621027E-2
1.338965180E-1,-9.381771088E-5,-6.803520024E-2,6.883621216E-3,6.838261120E-2
1.389137580E-1,9.485125542E-3,-8.168411255E-2,2.107238770E-2,8.488997216E-2
1.439309980E-1,4.895672202E-3,-7.622338831E-2,2.564907074E-2,8.057200111E-2
1.489482370E-1,3.432929516E-4,-8.510613441E-2,1.697540283E-3,8.512375466E-2
1.539654770E-1,-4.275381565E-3,-7.497334480E-2,-1.255798340E-2,7.613792922E-2
1.589827160E-1,5.286902189E-3,-7.437047362E-2,-3.144645691E-2,8.091846720E-2
1.639999560E-1,-4.379093647E-3,-7.372109592E-2,-2.643871307E-2,7.844094590E-2
1.690171960E-1,9.726434946E-3,-8.257412910E-2,-2.479553223E-3,8.318196029E-2
1.740344350E-1,-2.807378769E-5,-7.705634832E-2,3.077602386E-2,8.297496761E-2
1.790516750E-1,4.543051124E-3,-7.158552110E-2,2.576637268E-2,7.621700667E-2
1.840689140E-1,9.231805801E-3,-7.095934451E-2,1.605415344E-2,7.333614834E-2
1.890861540E-1,9.237185121E-3,-7.983444631E-2,1.117324829E-2,8.114003872E-2
1.941033930E-1,4.595935345E-3,-7.444255054E-2,1.108360291E-2,7.540333020E-2
1.991206330E-1,1.418621838E-2,-6.439958513E-2,1.498222351E-3,6.596059450E-2
2.041378730E-1,-4.704296589E-5,-6.388673186E-2,-1.750564575E-2,6.624171159E-2
2.091551120E-1,3.339350224E-5,-6.807416677E-2,-1.261043549E-2,6.923233623E-2
2.141723520E-1,-4.786565900E-3,-6.267532706E-2,-1.725673676E-2,6.518360836E-2
2.191895910E-1,-4.818961024E-3,-5.732242763E-2,-7.618904114E-3,5.802698333E-2
2.242068310E-1,-4.903748631E-3,-5.206662416E-2,1.143550873E-2,5.353270928E-2
2.292240710E-1,-1.443327963E-2,-5.630007386E-2,2.558326721E-2,6.350213728E-2
2.342413100E-1,4.710629582E-3,-5.585280061E-2,1.587390900E-2,5.825552638E-2
2.392585500E-1,-4.744455218E-3,-5.540925264E-2,2.049160004E-2,5.926719840E-2
2.442758410E-1,1.236647367E-4,-5.502189696E-2,1.329421997E-3,5.503809409E-2
2.492931330E-1,-9.293198586E-3,-5.458527803E-2,-3.428459167E-3,5.547675595E-2
2.543104250E-1,-1.393570006E-2,-5.890177190E-2,-2.239322662E-2,6.453742378E-2
2.593277160E-1,-9.092956781E-3,-4.418732226E-2,-7.961273193E-3,4.581029559E-2
2.643450080E-1,-4.392519593E-3,-3.904001415E-2,-3.149032593E-3,3.941235009E-2
2.693623000E-1,-9.279787540E-3,-6.237505376E-2,1.621246338E-3,6.308240823E-2
2.743795910E-1,-9.275868535E-3,-4.758013785E-2,1.605987549E-3,4.850247881E-2
2.793968830E-1,-4.523485899E-3,-6.139950454E-2,6.339073181E-3,6.189139626E-2
2.844141750E-1,9.790450335E-3,-5.610875785E-2,2.527999878E-2,6.231471707E-2
2.894314660E-1,-1.395136118E-2,-5.566212535E-2,1.557445526E-2,5.945987163E-2
2.944487580E-1,4.915744066E-4,-5.996866524E-2,1.200675964E-3,5.998269816E-2
2.994660500E-1,4.656016827E-4,-5.943930149E-2,5.938529968E-3,5.973703612E-2
3.044842790E-1,5.134642124E-3,-5.896779895E-2,-8.357048035E-3,5.977797349E-2
3.095016750E-1,5.017369986E-3,-6.319622695E-2,-8.289337158E-3,6.393473401E-2
3.145189660E-1,9.650662541E-3,-6.263996661E-2,1.275062561E-3,6.339184875E-2
3.195362580E-1,-1.639127731E-7,-5.259135365E-2,-3.485679626E-3,5.270674000E-2
3.245535500E-1,-4.823133349E-3,-4.732438922E-2,1.553440094E-2,5.004176299E-2
3.295707890E-1,-4.804804921E-3,-5.164889991E-2,2.490139008E-2,5.753932777E-2
3.345880290E-1,4.711419344E-3,-5.593641102E-2,1.519584656E-2,5.815490782E-2
3.396052680E-1,9.501844645E-3,-6.024067104E-2,5.574226379E-3,6.123965626E-2
3.446225080E-1,6.854534149E-6,-5.501206219E-2,1.502704620E-2,5.702752977E-2
3.496397480E-1,4.836484790E-3,-5.457553267E-2,1.490402222E-2,5.678036835E-2
3.546569870E-1,1.299381256E-4,-4.934164882E-2,5.283355713E-3,4.962387570E-2
3.596742270E-1,-9.441569448E-3,-5.364933610E-2,-9.008407593E-3,5.521363876E-2
3.646914660E-1,4.810228944E-3,-5.317166448E-2,5.617141724E-4,5.339175712E-2
3.697087060E-1,1.419477165E-2,-5.264645815E-2,5.302429199E-3,5.478372800E-2
3.747259460E-1,-4.988878965E-3,-5.212466419E-2,5.073547363E-4,5.236532191E-2
3.797431850E-1,-4.968136549E-3,-4.685968161E-2,5.249977112E-3,4.741386296E-2
3.847604250E-1,-9.698137641E-3,-4.649204016E-2,9.954452515E-3,4.852478538E-2
3.897776640E-1,-9.640216827E-3,-3.668200970E-2,5.124092102E-3,3.827218227E-2
3.947949040E-1,-9.479716420E-3,-3.645072877E-2,9.832382202E-3,3.892552365E-2
3.998121430E-1,1.764446497E-4,-4.566684365E-2,5.003929138E-3,4.594051642E-2
4.048293830E-1,-1.404190063E-2,-4.056063294E-2,1.920890808E-2,4.702469636E-2
4.098466230E-1,5.047246814E-3,-3.544449806E-2,4.802703857E-3,3.612275055E-2
4.148638620E-1,1.832842827E-4,-3.986799717E-2,-4.735946655E-3,4.014872329E-2
4.198811020E-1,-9.389698505E-3,-4.420407116E-2,4.959106445E-5,4.519036186E-2
4.248983410E-1,-1.888185740E-2,-3.905756772E-2,4.796028137E-3,4.364653503E-2
4.299155810E-1,-1.879791915E-2,-3.395396471E-2,9.502410889E-3,3.995659266E-2
4.349328210E-1,3.308504820E-4,-4.788689315E-2,1.417064667E-2,4.994067706E-2
4.399500600E-1,3.577470779E-4,-3.796119988E-2,9.304046631E-3,3.908639102E-2
4.449673000E-1,5.082398653E-3,-3.766579926E-2,1.872348785E-2,4.236876453E-2
4.499845390E-1,3.222078085E-4,-4.681831598E-2,-5.174636841E-3,4.710451566E-2
4.550017790E-1,-1.384477317E-2,-4.639852047E-2,-5.130767822E-3,4.869112059E-2
4.600190180E-1,5.293250084E-3,-4.598318040E-2,-5.087852478E-3,4.656562702E-2
4.650362580E-1,9.974762797E-3,-4.557131231E-2,-5.046844482E-3,4.692239378E-2
4.700534980E-1,3.202259541E-4,-5.471141636E-2,-2.574920654E-4,5.471295941E-2
4.750707370E-1,2.956837416E-4,-3.528337181E-2,-2.555847168E-4,3.528553639E-2
4.800879770E-1,9.716793895E-3,-3.970822692E-2,-2.555847168E-4,4.088061512E-2
4.851052160E-1,6.541609764E-5,-4.414771497E-2,4.493713379E-3,4.437587719E-2
4.901224560E-1,9.453296661E-5,-4.849867523E-2,-2.918243408E-4,4.849964533E-2
4.951397480E-1,-9.374588728E-3,-2.437488735E-2,-2.880096436E-4,2.611706332E-2
5.001570390E-1,-4.519298673E-3,-3.844012320E-2,4.464149475E-3,3.896146510E-2
5.051743310E-1,-4.450991750E-3,-3.803765774E-2,-3.223419189E-4,3.829854616E-2
5.101916230E-1,5.112767220E-3,-4.238800704E-2,1.392459869E-2,4.490855129E-2
5.152089140E-1,5.099818110E-3,-3.725662827E-2,-4.367828369E-4,3.760658552E-2
5.202262060E-1,2.879202366E-4,-4.166404903E-2,1.381111145E-2,4.389444930E-2
5.252434980E-1,2.636313438E-4,-3.173866868E-2,1.369380951E-2,3.456780308E-2
5.302607890E-1,9.736537933E-3,-4.569004476E-2,1.357841492E-2,4.864929304E-2
5.352780810E-1,4.833474755E-3,-3.573112190E-2,1.821136475E-2,4.039466990E-2
5.402953730E-1,-4.724726081E-3,-2.590575814E-2,8.562088013E-3,2.769008293E-2
5.453126640E-1,-4.655689001E-3,-3.040872514E-2,3.742218018E-3,3.098984028E-2
5.503299560E-1,-9.284183383E-3,-2.542872727E-2,-1.035690308E-3,2.709038364E-2
5.553472480E-1,-4.481181502E-3,-2.998816967E-2,-1.052379608E-2,3.209550735E-2
5.603645390E-1,-4.518240690E-3,-2.496108413E-2,-5.689620972E-3,2.599696149E-2
5.653818310E-1,-9.354054928E-3,-2.947193384E-2,-8.964538574E-4,3.093374949E-2
5.703991230E-1,-4.652574658E-3,-2.919669449E-2,3.856658936E-3,2.981555363E-2
5.754164140E-1,4.809781909E-3,-1.942674816E-2,3.822326660E-3,2.037505158E-2
5.804337060E-1,-6.854534149E-7,-1.923520863E-2,3.789901733E-3,1.960501483E-2
5.854509980E-1,4.778429866E-3,-3.328983486E-2,8.506774902E-3,3.469022508E-2
5.904682890E-1,9.465217590E-3,-4.247976840E-2,-1.062393188E-3,4.353446619E-2
5.954855810E-1,1.416547596E-2,-4.209518433E-2,8.443832397E-3,4.521021520E-2
6.005028730E-1,1.412864029E-2,-2.752079070E-2,-5.869865417E-3,3.148758036E-2
6.055201640E-1,-2.049356699E-4,-2.731335163E-2,8.425712585E-3,2.858415310E-2
6.105374560E-1,9.269967675E-3,-3.660655022E-2,-1.141548157E-3,3.777929263E-2
6.155547480E-1,-5.076572299E-3,-3.627376258E-2,1.311206818E-2,3.890351874E-2
6.205720390E-1,-5.058065057E-3,-3.594374657E-2,3.504753113E-3,3.646670034E-2
6.255893310E-1,-2.902299166E-4,-3.561553359E-2,8.223533630E-3,3.655375455E-2
6.306066230E-1,4.437848926E-3,-3.529006243E-2,8.153915405E-3,3.649067478E-2
6.356239140E-1,-3.695189953E-4,-3.021784127E-2,3.336906433E-3,3.040377312E-2
6.406412060E-1,-3.377199173E-4,-2.998888493E-2,-6.186485291E-3,3.062221210E-2
6.456584980E-1,9.191751480E-3,-4.400637746E-2,-1.385688782E-3,4.497743529E-2
6.506757890E-1,4.395365715E-3,-3.416551650E-2,3.375053406E-3,3.461203176E-2
6.556930810E-1,-4.125833511E-4,-3.860062361E-2,1.284313202E-2,4.068322023E-2
6.607103730E-1,-5.128934979E-3,-1.925627887E-2,7.987976074E-3,2.146900118E-2
6.657276640E-1,4.441410303E-3,-1.911675930E-2,-1.574516296E-3,1.968897441E-2
6.707449560E-1,-9.810492396E-3,-2.367536724E-2,-1.561164856E-3,2.567500751E-2
6.757622480E-1,-9.750619531E-3,-2.824848890E-2,3.200531006E-3,3.005486825E-2
6.807795390E-1,-1.438818872E-2,-1.853798330E-2,-1.573562622E-3,2.351920277E-2
6.857968310E-1,-9.542614222E-3,-2.790336311E-2,-1.560211182E-3,2.953122784E-2
6.908141230E-1,-4.685848951E-3,-2.764214575E-2,3.201484680E-3,2.821869782E-2
6.958314140E-1,-4.667758942E-3,-2.738119662E-2,-1.582050323E-2,3.196570388E-2
7.008487060E-1,-9.450778365E-3,-2.237486839E-2,-1.569080353E-2,2.891631482E-2
7.058659980E-1,4.903137684E-3,-1.271331310E-2,-6.062507629E-3,1.491385557E-2
7.108832890E-1,1.959353685E-4,-2.212530375E-2,-1.261711121E-3,2.216211568E-2
7.159005810E-1,2.239644527E-4,-3.145983815E-2,-5.998611450E-3,3.202740882E-2
7.209178730E-1,4.948705435E-3,-3.116802871E-2,8.296012878E-3,3.263065321E-2
7.259351640E-1,-4.559889436E-3,-2.618169785E-2,8.227348328E-3,2.782019328E-2
7.309524560E-1,-1.404169202E-2,-2.123786509E-2,3.410339355E-3,2.568747638E-2
7.359697480E-1,2.483278513E-4,-2.097873390E-2,-1.561450958E-2,2.615304671E-2
7.409870390E-1,-4.574760795E-3,-1.127631962E-2,-5.989074707E-3,1.356292138E-2
7.460043310E-1,-4.558518529E-3,-1.590120792E-2,-1.068878174E-2,1.969463276E-2
7.510216230E-1,-4.542410374E-3,-2.043600380E-2,-5.852699280E-3,2.173747530E-2
7.560389140E-1,4.970565438E-3,-3.443002701E-2,3.690719604E-3,3.498220536E-2
7.610562060E-1,9.655758739E-3,-3.416500986E-2,8.408546448E-3,3.648541118E-2
7.660734980E-1,9.604036808E-3,-2.905158699E-2,1.308631897E-2,3.327888180E-2
7.710907890E-1,5.576014519E-5,-3.352929652E-2,1.297760010E-2,3.595323266E-2
7.761080810E-1,4.832550883E-3,-2.847270668E-2,-6.124496460E-3,2.952216168E-2
7.811253730E-1,4.821941257E-3,-2.350883186E-2,8.172988892E-3,2.535180546E-2
7.861426640E-1,6.474554539E-5,-2.813297510E-2,1.285552979E-2,3.093110289E-2
7.911599560E-1,9.480118752E-5,-2.791947126E-2,1.749801636E-2,3.294975629E-2
7.961772480E-1,-9.372413158E-3,-2.770774066E-2,7.856369019E-3,3.028668941E-2
8.011945390E-1,2.323687077E-4,-3.224723041E-2,7.791519165E-3,3.317597979E-2
8.062118310E-1,5.059242249E-3,-2.245283127E-2,-1.769065857E-3,2.308365565E-2
8.112291230E-1,-9.198740125E-3,-2.703611553E-2,1.249217987E-2,3.117086654E-2
8.162464140E-1,3.539323807E-4,-2.678021789E-2,7.638931274E-3,2.785064827E-2
8.212637060E-1,9.877651930E-3,-1.703040302E-2,1.232337952E-2,2.322645727E-2
8.262809980E-1,3.280192614E-4,-1.211033762E-2,-2.024650574E-3,1.228279625E-2
8.312982890E-1,-4.393547773E-3,-2.152833343E-2,-2.006530762E-3,2.206351214E-2
8.363155810E-1,-4.274815321E-3,-3.081531823E-2,-6.737709045E-3,3.183166044E-2
8.413328730E-1,5.287483335E-3,-2.108344436E-2,2.816200256E-3,2.191803116E-2
8.463501640E-1,-4.224807024E-3,-1.143361628E-2,1.229095459E-2,1.731023224E-2
8.513674560E-1,-1.360537112E-2,-6.560191512E-3,7.440567017E-3,1.683758514E-2
8.563847480E-1,-8.712917566E-3,-1.602347195E-2,-2.117156982E-3,1.836161593E-2
8.614020390E-1,-3.964334726E-3,-1.111084223E-2,-2.100944519E-3,1.198251780E-2
8.664193310E-1,-8.754119277E-3,-2.048657835E-2,1.690864563E-2,2.796849645E-2
8.714366230E-1,-4.006981850E-3,-1.553866267E-2,1.676559448E-2,2.320756557E-2
8.764539140E-1,7.530301809E-4,-1.537953317E-2,7.127761841E-3,1.696767762E-2
8.814712060E-1,-3.971174359E-3,-1.522076130E-2,-1.667404175E-2,2.292303358E-2
8.864884980E-1,1.028554142E-2,-2.456128597E-2,-7.039070129E-3,2.754265127E-2
8.915057890E-1,5.429446697E-3,-1.488152146E-2,2.516746521E-3,1.603971900E-2
8.965230810E-1,5.362316966E-3,-1.947636902E-2,7.243156433E-3,2.146035202E-2
9.015403730E-1,5.295753479E-3,-2.878141403E-2,7.182121277E-3,3.013299960E-2
9.065576640E-1,5.319118500E-4,-2.851288021E-2,1.661968231E-2,3.300728871E-2
9.115749560E-1,5.306527019E-3,-1.879923046E-2,1.173400879E-2,2.278721697E-2
9.165922480E-1,5.240425467E-3,-1.861292124E-2,1.638412476E-2,2.534447553E-2
9.216095390E-1,5.226433277E-3,-2.797672153E-2,-2.745628357E-3,2.859284923E-2
9.266268310E-1,-9.084507823E-3,-1.346844435E-2,-2.723693848E-3,1.647257672E-2
9.316441230E-1,-9.030684829E-3,-8.629620075E-3,6.795883179E-3,1.421997325E-2
9.366614140E-1,5.216628313E-3,-1.802507043E-2,-2.759933472E-3,1.896664461E-2
9.416787060E-1,4.018843174E-4,-1.784618199E-2,-2.737998962E-3,1.805946735E-2
9.466959980E-1,5.126029253E-3,-1.771841943E-2,-2.715110779E-3,1.864377616E-2
9.517132890E-1,5.061432719E-3,-8.044123650E-3,1.155185699E-2,1.495899149E-2
9.567305810E-1,2.488791943E-4,-1.744444668E-2,6.706237793E-3,1.869075403E-2
9.617478730E-1,2.258121967E-4,-1.257151365E-2,1.901626587E-3,1.271652981E-2
9.667651640E-1,4.950538278E-3,-1.723717153E-2,6.634712219E-3,1.912190675E-2
9.717824560E-1,1.904666424E-4,-1.706388593E-2,-2.917289734E-3,1.731251166E-2
9.767997480E-1,-4.530832171E-3,-2.699062228E-3,-2.892494202E-3,6.014972966E-3
9.818170390E-1,5.033597350E-3,-1.689243317E-2,-2.868652344E-3,1.785834726E-2
9.868343310E-1,2.737045288E-4,-1.197254658E-2,-1.234149933E-2,1.719678433E-2
9.918515710E-1,9.748294950E-3,-2.133823931E-2,2.005577087E-3,2.354510673E-2
9.968688100E-1,-4.548773170E-3,-2.593083680E-2,6.738662720E-3,2.717552593E-2
1.001886050E0,-1.402887702E-2,-1.149019599E-2,-2.814292908E-3,1.835086480E-2
1.006903289E0,3.632009029E-4,-1.141636074E-2,6.707191467E-3,1.324581537E-2
1.011920529E0,-4.358664155E-3,-1.129157841E-2,6.650924683E-3,1.381059359E-2
1.016937768E0,9.953707457E-3,-6.418377161E-3,-2.901077271E-3,1.219377328E-2
1.021955008E0,-1.384031773E-2,-2.537889779E-2,-7.624626160E-3,2.989611633E-2
1.026972248E0,5.298689008E-3,-1.569232345E-2,-1.230907440E-2,2.063585310E-2
1.031989487E0,4.326105118E-4,-1.078340411E-2,2.103137970E-2,2.363869472E-2
1.037006727E0,-4.392072558E-3,-1.541145146E-2,6.608963013E-3,1.733440306E-2
1.042023966E0,9.868144989E-3,-1.525337994E-2,1.804351807E-3,1.825654870E-2
1.047041206E0,2.670288086E-4,-1.984512806E-2,1.128578186E-2,2.283132244E-2
1.052058446E0,-9.201660752E-3,-1.484909654E-2,1.693725586E-3,1.755092405E-2
1.057075685E0,4.016906023E-4,-1.464416087E-2,6.426811218E-3,1.599739683E-2
1.062092925E0,4.271566868E-4,-1.444189250E-2,1.112079620E-2,1.823246638E-2
1.067110164E0,-4.243686795E-3,-1.424033940E-2,-3.217697144E-3,1.520360874E-2
1.072127404E0,-4.229351878E-3,-2.358806133E-2,1.556396484E-3,2.401471267E-2
1.077144643E0,9.978815913E-3,-1.861239970E-2,6.290435791E-3,2.203560237E-2
1.082161883E0,9.874626994E-3,-1.362663507E-2,6.236076355E-3,1.794664565E-2
1.087179123E0,1.931816339E-2,-1.353596151E-2,6.184577942E-3,2.438570678E-2
1.092196362E0,4.941344261E-3,-1.339352131E-2,-3.363609314E-3,1.466687301E-2
1.097213602E0,-9.315669537E-3,-3.703698516E-3,1.090908051E-2,1.481577265E-2
1.102230841E0,-9.208366275E-3,-8.443251252E-3,1.321792603E-3,1.256302658E-2
1.107248081E0,-9.050399065E-3,-8.394807577E-3,1.080989838E-2,1.640842529E-2
1.112265321E0,-4.196807742E-3,-8.295208216E-3,-8.274078369E-3,1.244524196E-2
1.117282560E0,5.364850163E-3,-1.769344509E-2,1.292228699E-3,1.853400851E-2
1.122299800E0,5.246698856E-3,-1.746480167E-2,6.027221680E-3,1.920610703E-2
1.127317039E0,3.810375929E-4,-1.254113019E-2,1.072406769E-2,1.650547678E-2
1.132334279E0,-9.191721678E-3,-1.710295677E-2,5.883216858E-3,2.028820146E-2
1.137351518E0,-4.336103797E-3,-2.632766962E-3,1.533031464E-2,1.614781115E-2
1.142368758E0,5.227565765E-3,-1.682572067E-2,9.574890137E-4,1.764508728E-2
1.147385998E0,5.316793919E-3,-1.665586233E-2,1.044845581E-2,2.036802092E-2
1.152403289E0,1.005151868E-2,-2.128651738E-2,5.614280701E-3,2.420059912E-2
1.157420581E0,1.004898548E-2,-1.638254523E-2,-8.676528931E-3,2.108677433E-2
1.162437873E0,1.474343240E-2,-6.770938635E-3,8.935928345E-4,1.624847430E-2
1.167455164E0,3.523379564E-4,-2.567984164E-2,-8.611679077E-3,2.708762494E-2
1.172472456E0,5.023613572E-3,-6.443142891E-3,-8.542060852E-3,1.182021942E-2
1.177489748E0,4.959017038E-3,-1.110927761E-2,1.052188873E-2,1.608471453E-2
1.182507039E0,1.971870661E-4,-1.104052365E-2,-3.809928894E-3,1.168107886E-2
1.187524331E0,1.728236675E-4,-1.525938511E-3,9.708404541E-4,1.816834485E-3
1.192541623E0,9.698048234E-3,-6.283625960E-3,9.641647339E-4,1.159593499E-2
1.197558914E0,4.898414016E-3,-1.575018466E-2,-3.791809082E-3,1.692455591E-2
1.202576206E0,9.687319398E-3,-2.038934827E-2,9.899139404E-4,2.259534486E-2
1.207593498E0,4.940167069E-3,-5.994886160E-3,5.731582642E-3,9.653753173E-3
1.212610789E0,-4.567489028E-3,-1.066283882E-2,1.043224335E-2,1.560095474E-2
1.217628081E0,-9.248256683E-3,-2.473828197E-2,5.596160889E-3,2.699684913E-2
1.222645373E0,5.103990436E-3,-1.020543277E-2,-1.344585419E-2,1.763498146E-2
1.227662664E0,2.902299166E-4,-5.343198776E-3,5.659103394E-3,7.788418183E-3
1.232679956E0,5.014419556E-3,-2.895997465E-2,1.035881042E-2,3.116295057E-2
1.237697248E0,9.749978781E-3,-1.989603043E-4,1.027202606E-2,1.416390451E-2
1.242714539E0,-4.495546222E-3,-4.916161299E-3,6.904602051E-4,6.697410921E-3
1.247731831E0,-4.429236054E-3,-9.801983833E-5,6.847381592E-4,4.482923852E-3
1.252749123E0,3.342926502E-4,-4.867613316E-3,-4.069328308E-3,6.353333286E-3
1.257766414E0,9.858176112E-3,-4.848957062E-3,7.143020630E-4,1.100937093E-2
1.262783706E0,3.095418215E-4,-2.944469452E-5,1.020526886E-2,1.021000468E-2
1.267800998E0,5.085974932E-3,-9.444028139E-3,1.011943817E-2,1.474651950E-2
1.272818289E0,2.732127905E-4,-9.335681796E-3,-4.211425781E-3,1.024527730E-2
1.277835581E0,-9.195551276E-3,-4.478767514E-3,5.320549011E-3,1.152934358E-2
1.282852873E0,5.053132772E-3,2.851337194E-4,-8.970260620E-3,1.029956444E-2
1.287870164E0,-4.507869482E-3,-9.184598923E-3,-8.896827698E-3,1.355843972E-2
1.292887456E0,-9.189128876E-3,-9.078413248E-3,-4.074096680E-3,1.354459082E-2
1.297904748E0,-4.334390163E-3,-1.847010851E-2,5.456924438E-3,1.974107066E-2
1.302922039E0,-9.121030569E-3,-4.042014480E-3,6.608963013E-4,9.998393052E-3
1.307939331E0,9.926259518E-3,-3.979653120E-3,6.542205811E-4,1.071430220E-2
1.312956623E0,3.230124712E-4,5.578219891E-3,-4.100799561E-3,6.930904071E-3
1.317973914E0,-4.501625896E-3,-1.338106394E-2,6.790161133E-4,1.413430475E-2
1.322991206E0,-4.485160112E-3,-1.793588698E-2,5.419731140E-3,1.926619289E-2
1.328008498E0,4.975780845E-3,-8.259788156E-3,1.012134552E-2,1.397941810E-2
1.333025789E0,4.911601543E-3,-1.296232641E-2,5.288124084E-3,1.483610434E-2
1.338043081E0,-4.648223519E-3,-1.762472093E-2,5.244255066E-3,1.896678626E-2
1.343060373E0,-9.379044175E-3,-1.744724810E-2,9.947776794E-3,2.216599195E-2
1.348077664E0,4.974290729E-3,-3.026708961E-3,3.681182861E-4,5.834384840E-3
1.353094956E0,4.910960793E-3,-1.726889610E-2,-1.388072968E-2,2.269376489E-2
1.358112248E0,-4.648849368E-3,-7.649913430E-3,-4.267692566E-3,9.916964040E-3
1.363129539E0,4.864186049E-3,-1.235753298E-2,-8.980751038E-3,1.603193115E-2
1.368146831E0,5.327165127E-5,-2.727910876E-3,5.903244019E-4,2.791562021E-3
1.373164123E0,3.260374069E-5,-1.217062771E-2,1.008129120E-2,1.580372343E-2
1.378181414E0,4.810497165E-3,-2.490982413E-3,5.248069763E-3,7.542420871E-3
1.383198706E0,-4.697740078E-3,2.306953073E-3,4.558563232E-4,5.253436904E-3
1.388215998E0,-4.629731178E-3,7.013350725E-3,4.529953003E-4,8.415860260E-3
1.393233289E0,-4.510730505E-3,-1.201041043E-2,-4.298210144E-3,1.353038280E-2
1.398250581E0,9.802863002E-3,-1.657664776E-2,4.854202271E-4,1.926439739E-2
1.403267873E0,9.750038385E-3,-1.171289384E-2,-4.265785217E-3,1.582567705E-2
1.408285164E0,9.595349431E-3,-6.888702512E-3,5.168914795E-4,1.182337218E-2
1.413302456E0,-5.504488945E-5,-2.053141594E-3,5.259513855E-3,5.646317945E-3
1.418319748E0,-9.573474526E-3,-6.806463003E-3,4.673004150E-4,1.175575275E-2
1.423337039E0,-4.818648100E-3,-1.621709764E-2,-9.035110474E-3,1.917933384E-2
1.428354331E0,-3.129243851E-7,-1.135537028E-2,-4.210472107E-3,1.211084265E-2
1.433371623E0,-2.218782902E-5,-1.785650849E-3,-1.367282867E-2,1.378895519E-2
1.438388914E0,-1.428939402E-2,-1.689568162E-3,6.847381592E-4,1.440521740E-2
1.443406206E0,-9.443700314E-3,-1.109129190E-2,-8.819580078E-3,1.702895254E-2
1.448423498E0,1.616775990E-4,-6.220728159E-3,7.505416870E-4,6.267927193E-3
1.453440789E0,1.392662525E-4,-1.088678837E-2,7.429122925E-4,1.091299568E-2
1.458458081E0,-4.631459713E-3,-1.076546311E-2,-4.013061523E-3,1.238750491E-2
1.463475373E0,4.933819175E-3,-2.014310658E-2,-3.979682922E-3,2.111694084E-2
1.468492664E0,-4.627004266E-3,-1.999811828E-2,-3.946304321E-3,2.090232573E-2
1.473509956E0,-4.662707448E-3,-8.087754250E-4,-3.914833069E-3,6.141732361E-3
1.478527248E0,5.121529102E-5,-5.572453141E-3,8.649826050E-4,5.639419467E-3
1.483544539E0,-2.264976501E-5,-1.029641926E-2,1.510238647E-2,1.827837082E-2
1.488561831E0,-9.670853615E-5,-1.493042707E-2,1.022624969E-2,1.809704915E-2
1.493579123E0,-1.169741154E-4,-9.975358844E-3,5.390167236E-3,1.133910798E-2
1.498596414E0,9.409844875E-3,-9.915098548E-3,1.009464264E-2,1.699282701E-2
1.503613706E0,-1.874417067E-4,-5.105897784E-3,5.130767822E-4,5.135034018E-3
1.508630998E0,-1.440089941E-2,-2.842545509E-4,-1.373672485E-2,1.990387686E-2
1.513648289E0,-4.806593060E-3,-5.001708865E-3,5.371093750E-3,8.773202180E-3
1.518665581E0,-4.072487354E-5,-1.828372478E-4,-4.171371460E-3,4.175575150E-3
1.523682873E0,-9.894371033E-6,-9.915232658E-5,6.113052368E-4,6.193732114E-4
1.528700164E0,-1.427720487E-2,-4.817187786E-3,6.055831909E-4,1.508013953E-2
1.533717456E0,-1.417930424E-2,1.424755156E-2,-4.148483276E-3,2.052450505E-2
1.538734748E0,-4.586040974E-3,4.661470652E-3,-1.361179352E-2,1.510105967E-2
1.543752039E0,-4.518970847E-3,-1.487433910E-4,-1.824569702E-2,1.879757117E-2
1.548769331E0,-9.200945497E-3,4.629671574E-3,-1.334476471E-2,1.685746132E-2
1.553786623E0,4.016011953E-4,-4.928782582E-3,1.012802124E-3,5.047766774E-3
1.558803914E0,5.124047399E-3,-9.607523680E-3,1.003265381E-3,1.093466572E-2
1.563821206E0,3.625303507E-4,-4.749327898E-3,5.743026733E-3,7.461226427E-3
1.568838498E0,-9.159386158E-3,-1.417709887E-2,1.519107819E-2,2.270800175E-2
1.573855789E0,-4.304885864E-3,-4.532322288E-3,-1.342678070E-2,1.481055123E-2
1.578873081E0,5.091726780E-4,2.835988998E-4,-3.817558289E-3,3.861791869E-3
1.583890373E0,5.283102393E-3,-1.398618519E-2,5.712509155E-3,1.600491512E-2
1.588907664E0,9.965687990E-3,-9.143054485E-3,9.164810181E-4,1.355545351E-2
1.593924956E0,-9.080871940E-3,4.607439041E-4,-3.839492798E-3,9.869965809E-3
1.598942248E0,-9.077832103E-3,4.875063896E-4,-3.808975220E-3,9.856621652E-3
1.603959539E0,4.737526178E-4,5.140453577E-4,-2.277183533E-2,2.278256281E-2
1.608976831E0,-4.300594330E-3,-8.957594633E-3,5.908012390E-3,1.156019998E-2
1.613994123E0,1.470817626E-2,-1.365239918E-2,1.110076904E-3,2.009852539E-2
1.619011414E0,9.816020727E-3,6.859153509E-4,5.848884583E-3,1.144701680E-2
1.624028706E0,-4.533171654E-3,-4.038661718E-3,5.799293518E-3,8.395965640E-3
1.629045998E0,-9.214222431E-3,-8.723855019E-3,-3.746032715E-3,1.323027976E-2
1.634063289E0,4.407912493E-4,5.623981357E-3,-3.713607788E-3,6.753839355E-3
1.639080581E0,-4.282519221E-3,-3.942772746E-3,1.067161560E-3,5.918129908E-3
1.644097873E0,4.789978266E-4,1.036426425E-2,-3.690719604E-3,1.101221247E-2
1.649115164E0,4.023760557E-4,-3.885447979E-3,5.834579468E-3,7.021462102E-3
1.654132456E0,5.074083805E-3,-1.806892455E-2,-3.712654114E-3,1.913154885E-2
1.659149748E0,4.958361387E-3,-8.391708136E-3,5.813598633E-3,1.134918685E-2
1.664167039E0,4.894360900E-3,5.900844932E-3,1.051330566E-2,1.301169995E-2
1.669184279E0,1.347512007E-4,-1.311267912E-2,9.288787842E-4,1.314622864E-2
1.674201518E0,5.014106631E-3,-3.477737308E-3,-3.825187683E-3,7.201942995E-3
1.679218758E0,5.105108023E-3,1.329392195E-3,-8.540153503E-3,1.003810905E-2
1.684235998E0,5.092233419E-3,1.347959042E-3,-8.468627930E-3,9.973238881E-3
1.689253237E0,-4.469886422E-3,6.165459752E-3,-1.314830780E-2,1.519443242E-2
1.694270477E0,4.990920424E-3,-8.101776242E-3,-1.304054260E-2,1.614322819E-2
1.699287716E0,4.823535681E-3,-8.005574346E-3,-3.437995911E-3,9.958691327E-3
1.704304956E0,4.657536745E-3,-3.161683679E-3,1.336097717E-3,5.785676220E-3
1.709322196E0,4.492923617E-3,1.641854644E-3,6.071090698E-3,7.729177936E-3
1.714339435E0,4.433602095E-3,1.606255770E-3,2.026557922E-2,2.080698408E-2
1.719356675E0,-9.767621756E-3,1.570954919E-3,1.060199738E-2,1.450092006E-2
1.724373914E0,-1.435348392E-2,1.587510109E-3,1.526355743E-2,2.101235052E-2
1.729391154E0,4.130601883E-5,1.099780202E-2,-3.855705261E-3,1.165417601E-2
1.734408393E0,-1.412411034E-2,-3.362223506E-3,-2.281570435E-2,2.704350947E-2
1.739425633E0,-1.402829587E-2,-8.053064346E-3,-3.632545471E-3,1.657830863E-2
1.744442873E0,-4.436284304E-3,1.592248678E-3,-1.310157776E-2,1.392362072E-2
1.749460112E0,2.242028713E-4,-3.139883280E-3,-3.498077393E-3,4.705919611E-3
1.754477352E0,9.594321251E-3,-1.252950728E-2,-8.221626282E-3,1.779423198E-2
1.759494591E0,9.440928698E-3,1.850053668E-3,1.558780670E-2,1.831757492E-2
1.764511831E0,4.694193602E-3,-2.936750650E-3,1.546001434E-2,1.642169301E-2
1.769529071E0,1.428407431E-2,-2.935156226E-3,1.088142395E-3,1.462306311E-2
1.774546310E0,1.424546540E-2,-2.985134721E-3,-8.415222168E-3,1.681250362E-2
1.779563550E0,4.658624530E-3,-7.783189416E-3,-1.784038544E-2,2.001399941E-2
1.784580789E0,4.597917199E-3,-7.688686252E-3,6.050109863E-3,1.081020667E-2
1.789598029E0,-4.959285259E-3,6.650537252E-3,5.998611450E-3,1.023755319E-2
1.794615268E0,-2.436935902E-4,-1.237019897E-2,1.197814941E-3,1.243044527E-2
1.799632508E0,1.862733066E-2,-1.223747432E-2,1.068210602E-2,2.471518995E-2
1.804649748E0,8.953213692E-3,-1.205429435E-2,2.008819580E-2,2.507990547E-2
1.809666987E0,-5.388781428E-3,2.321302891E-3,1.517105103E-2,1.626616739E-2
1.814684227E0,-1.481118798E-2,7.080093026E-3,1.504421234E-2,2.226718060E-2
1.819701466E0,-5.160301924E-3,2.251625061E-3,5.422592163E-3,7.816843169E-3
1.824718706E0,4.409372807E-3,2.210944891E-3,-8.867263794E-3,1.014688194E-2
1.829735998E0,4.402294755E-3,2.222165465E-3,7.038116455E-4,4.981322043E-3
1.834753289E0,-4.039555788E-4,2.234235406E-3,-8.799552917E-3,9.087745568E-3
1.839770581E0,-5.170166492E-3,2.297759056E-3,-3.979682922E-3,6.917238929E-3
1.844787873E0,9.096533060E-3,-2.440258861E-3,-8.695602417E-3,1.281855212E-2
1.849805164E0,4.250347614E-3,-1.188726723E-2,5.620956421E-3,1.381910736E-2
1.854822456E0,-5.046874285E-4,-7.011011243E-3,8.258819580E-4,7.077504437E-3
1.859839748E0,9.026184678E-3,-1.167143881E-2,-3.929138184E-3,1.526868104E-2
1.864857039E0,-5.264863372E-3,-2.047538757E-3,-3.896713257E-3,6.862621620E-3
1.869874331E0,4.356458783E-3,7.495224476E-3,-1.336002350E-2,1.592631002E-2
1.874891623E0,-3.471076488E-4,-6.783097982E-3,-8.499145508E-3,1.087963126E-2
1.879908914E0,4.485502839E-3,-6.696924567E-3,1.070022583E-3,8.131019783E-3
1.884926206E0,-5.070760846E-3,-1.914530993E-3,-3.687858582E-3,6.555787168E-3
1.889943498E0,-1.454737782E-2,2.828016877E-3,-3.657341003E-3,1.526433832E-2
1.894960789E0,-2.025365829E-4,7.582589984E-3,5.868911743E-3,9.590663011E-3
1.899978081E0,-2.227276564E-4,-6.644904613E-3,1.056671143E-2,1.248438045E-2
1.904995373E0,4.505738616E-3,-6.508335471E-3,5.728721619E-3,9.771303008E-3
1.910012664E0,-2.514123917E-4,-6.373867393E-3,5.680084229E-3,8.541238234E-3
1.915029956E0,-2.719908953E-4,-6.292074919E-3,5.631446838E-3,8.448513439E-3
1.920047248E0,4.456892610E-3,-1.095849276E-2,-8.662223816E-3,1.466242056E-2
1.925064539E0,4.397869110E-3,-6.089031696E-3,-3.842353821E-3,8.436897688E-3
1.930081831E0,-4.599243402E-4,3.489300609E-3,-3.811836243E-3,5.188144628E-3
1.935099123E0,-5.226492882E-3,3.438308835E-3,-3.780364990E-3,7.309538628E-3
1.940116414E0,4.292175174E-3,3.439292312E-3,9.984970093E-4,5.590035385E-3
1.945133706E0,-5.210921168E-3,-1.308232546E-3,5.738258362E-3,7.860838431E-3
1.950150998E0,-4.408657551E-4,-1.267686486E-3,1.043796539E-2,1.052390199E-2
1.955168289E0,-5.310699344E-3,8.217975497E-3,5.600929260E-3,1.127426527E-2
1.960185581E0,-1.003682613E-2,-1.317873597E-3,5.553245544E-3,1.154613380E-2
1.965202873E0,-9.923517704E-3,-1.225695014E-3,-3.991127014E-3,1.076604044E-2
1.970220164E0,4.382789135E-3,-1.057970524E-2,7.877349854E-4,1.147865541E-2
1.975237456E0,4.375934601E-3,-1.046189666E-2,-3.967285156E-3,1.201413488E-2
1.980254748E0,-3.793537617E-4,3.900423646E-3,-3.933906555E-3,5.552732181E-3
1.985272039E0,-3.980845213E-4,3.897562623E-3,8.468627930E-4,4.008321628E-3
1.990289331E0,9.081140161E-3,-5.652889609E-3,-3.909111023E-3,1.138874078E-2
1.995306623E0,4.183530807E-3,-5.576133728E-3,5.618095398E-3,8.953110815E-3
2.000323914E0,-5.701482296E-4,3.996983171E-3,1.031970978E-2,1.108139672E-2
2.005341206E0,-5.284234881E-3,8.741810918E-3,1.023387909E-2,1.445941484E-2
2.010358498E0,-5.262866616E-3,3.897607327E-3,1.014900208E-2,1.207854921E-2
2.015375789E0,-4.923790693E-4,-5.602240562E-3,5.314826965E-3,7.737888739E-3
2.020393081E0,4.239127040E-3,-7.764697075E-4,-8.975982666E-3,9.956975851E-3
2.025410373E0,4.181921482E-3,1.350514591E-2,5.950927734E-4,1.415032044E-2
2.030427664E0,8.873686194E-3,1.337069273E-2,-1.365566254E-2,2.107118530E-2
2.035444956E0,-1.016536355E-2,1.798491180E-2,5.453109741E-3,2.136651760E-2
2.040462248E0,-5.303263664E-3,3.618255258E-3,-8.837699890E-3,1.092342968E-2
2.045479539E0,4.215270281E-3,-1.183271408E-3,5.481719971E-3,7.015546208E-3
2.050496831E0,-5.910247564E-4,1.310078800E-2,1.018333435E-2,1.660362174E-2
2.055514123E0,-6.079822779E-4,8.221209049E-3,1.009845734E-2,1.303597949E-2
2.060531414E0,-5.320951343E-3,-1.365274191E-3,5.267143250E-3,7.610472707E-3
2.065548706E0,8.998557925E-3,-1.324251294E-3,1.471996307E-2,1.730332335E-2
2.070565998E0,-5.240708590E-3,-1.231998205E-3,-4.396438599E-3,6.950648779E-3
2.075583289E0,4.330441356E-3,-1.242697239E-3,9.886741638E-3,1.086483681E-2
2.080600581E0,-4.236698151E-4,8.295252919E-3,3.070831299E-4,8.311739719E-3
2.085617873E0,-3.396868706E-4,-1.242190599E-3,5.053520203E-3,5.215025512E-3
2.090635164E0,-9.753420949E-3,-5.951657891E-3,-9.233474731E-3,1.469042230E-2
2.095652456E0,-1.444251835E-2,-1.123920083E-3,-1.390552521E-2,2.008016843E-2
2.100669748E0,-1.434405148E-2,-1.084908843E-3,9.951591492E-3,1.749179846E-2
2.105687039E0,-9.548664093E-3,-1.045286655E-3,3.700256348E-4,9.612831483E-3
2.110704331E0,-4.794031382E-3,-1.525244117E-2,-4.383087158E-3,1.657803220E-2
2.115721623E0,-4.775166512E-3,-7.976740599E-4,3.995895386E-4,4.857794862E-3
2.120738914E0,9.540602565E-3,-5.508929491E-3,3.967285156E-4,1.102400993E-2
2.125756206E0,4.742279649E-3,4.063621163E-3,9.890556335E-3,1.169723633E-2
2.130773498E0,-6.762146950E-5,-1.018610597E-2,3.099441528E-4,1.019104474E-2
2.135790789E0,4.659548402E-3,-5.745887756E-4,-9.190559387E-3,1.032026770E-2
2.140808081E0,9.348124266E-3,4.106178880E-3,5.132675171E-3,1.142770697E-2
2.145825373E0,4.499062896E-3,-5.447924137E-3,9.838104248E-3,1.211237960E-2
2.150842664E0,-3.095865250E-4,-5.737692118E-4,5.005836487E-3,5.048113891E-3
2.155859956E0,-3.296732903E-4,-5.237236619E-3,4.961967468E-3,7.222080935E-3
2.160877248E0,-3.503710032E-4,-4.173666239E-4,-9.325981140E-3,9.341888405E-3
2.165894539E0,-3.177821636E-4,-5.132734776E-3,4.997253418E-3,7.170668972E-3
2.170911831E0,4.463031888E-3,-5.060315132E-3,-9.289741516E-3,1.148149556E-2
2.175929123E0,-2.937614918E-4,-1.893937588E-4,2.832412720E-4,4.498793483E-4
2.180946414E0,-2.616345882E-4,-1.581758261E-4,-4.467964172E-3,4.478412229E-3
2.185963706E0,-2.813339233E-4,4.569739103E-3,5.065917969E-3,6.828263990E-3
2.190980998E0,4.499182105E-3,4.561305046E-3,5.023956299E-3,8.141761494E-3
2.195998289E0,-9.754136205E-3,9.301438928E-3,-9.263038635E-3,1.635432126E-2
2.201015581E0,-1.977235079E-4,-2.434402704E-4,5.058288574E-3,5.068001682E-3
2.206032873E0,-2.195239067E-4,9.283334017E-3,5.015373230E-3,1.055378841E-2
2.211050164E0,-4.988878965E-3,1.868009567E-2,4.973411560E-3,1.996421073E-2
2.216067456E0,-9.717687964E-3,9.005516768E-3,-4.565238953E-3,1.401335785E-2
2.221084748E0,-1.615881920E-4,-5.368888378E-4,-9.276390076E-3,9.293318740E-3
2.226102039E0,-2.844631672E-4,4.246681929E-3,-4.453659058E-3,6.160381944E-3
2.231119331E0,-9.853318334E-3,4.291549325E-3,3.290176392E-4,1.075237324E-2
2.236136623E0,-5.044594407E-3,4.285424948E-3,5.073547363E-3,8.339885045E-3
2.241153914E0,-2.243667841E-4,-4.691481590E-4,2.832412720E-4,5.921706402E-4
2.246171206E0,-1.928210258E-4,-4.871487617E-4,-9.215354919E-3,9.230236192E-3
2.251188498E0,4.534617066E-3,-1.955151558E-2,-9.137153625E-3,2.205248489E-2
2.256205789E0,1.397116482E-2,-1.941145957E-2,4.358291626E-4,2.392045476E-2
2.261223081E0,4.284292459E-3,-9.723052382E-3,4.301071167E-4,1.063380937E-2
2.266240373E0,-5.225688219E-4,-1.911033690E-2,-4.323005676E-3,1.960016410E-2
2.271257664E0,8.905336261E-3,-9.475991130E-3,-4.287719727E-3,1.369247831E-2
2.276274956E0,4.009991884E-3,-1.411494613E-2,9.991645813E-3,1.775231605E-2
2.281292248E0,1.814943552E-2,-1.396673918E-2,5.158424377E-3,2.347511778E-2
2.286309539E0,1.317547262E-2,-4.324644804E-3,5.113601685E-3,1.477986988E-2
2.291326831E0,-1.200929284E-3,4.904717207E-4,3.213882446E-4,1.336444559E-3
2.296344123E0,3.586456180E-3,-4.284977913E-3,3.194808960E-4,5.596943066E-3
2.301361414E0,1.308324933E-2,4.773139954E-4,-4.430770874E-3,1.382139545E-2
2.306378706E0,1.775239408E-2,9.999990463E-3,3.547668457E-4,2.037825224E-2
2.311395998E0,3.440186381E-3,9.946301579E-3,5.101203918E-3,1.169555808E-2
2.316413289E0,3.442764282E-3,1.939193904E-2,-9.186744690E-3,2.173237686E-2
2.321430581E0,-1.560100913E-2,9.815514088E-3,-4.364013672E-3,1.894149989E-2
2.326447873E0,3.448769450E-3,2.654045820E-4,5.167007446E-3,6.217910924E-3
2.331465164E0,-1.351132989E-3,9.840473533E-3,3.738403320E-4,9.939830798E-3
2.336482456E0,-6.111055613E-3,1.453566551E-2,-9.127616882E-3,1.821932937E-2
2.341499748E0,-1.334294677E-3,9.643182158E-3,5.193710327E-3,1.103385388E-2
2.346517039E0,-2.028670907E-2,9.593412280E-3,4.014968872E-4,2.244427151E-2
2.351534331E0,-1.539103687E-2,1.424004138E-2,9.895324707E-3,2.318577679E-2
2.356551623E0,-1.998160779E-2,9.402528405E-3,5.064010620E-3,2.265648680E-2
2.361568914E0,-1.983697712E-2,1.885080338E-2,-4.476547241E-3,2.772900872E-2
2.366586206E0,-1.494506001E-2,1.397486031E-2,5.056381226E-3,2.107649237E-2
2.371603498E0,-1.484318078E-2,1.388710737E-2,2.651214600E-4,2.032835596E-2
2.376620737E0,-1.469059289E-2,2.324551344E-2,5.012512207E-3,2.795161342E-2
2.381637977E0,-1.928777993E-2,2.302892506E-2,2.231597900E-4,3.003996745E-2
2.386655216E0,-9.600386024E-3,1.342123747E-2,1.446628571E-2,2.194471347E-2
2.391672456E0,-9.491488338E-3,2.278350294E-2,1.010894775E-4,2.468170529E-2
2.396689696E0,-1.423510909E-2,3.628343344E-3,4.846572876E-3,1.546908126E-2
2.401706935E0,1.071393490E-4,3.679320216E-3,-4.693031311E-3,5.964345646E-3
2.406724175E0,-4.715710878E-3,-1.056720316E-2,4.840850830E-3,1.254342651E-2
2.411741414E0,-1.356005669E-6,-1.044949889E-2,5.054473877E-5,1.044962122E-2
2.416758654E0,-7.557868958E-5,-1.503068209E-2,-1.419830322E-2,2.067653091E-2
2.421775893E0,9.399369359E-3,-1.487673819E-2,-9.332656860E-3,1.991893490E-2
2.426793133E0,9.299159050E-3,-2.422010899E-2,2.412796021E-4,2.594506223E-2
2.431810373E0,9.200572968E-3,-3.348469734E-2,4.986763000E-3,3.508195126E-2
2.436827612E0,2.334751189E-2,-3.792451322E-2,4.943847656E-3,4.480866706E-2
2.441844852E0,2.787956595E-2,-2.813339233E-2,-1.883983612E-2,4.385997477E-2
2.446862091E0,3.712157905E-2,-2.312174439E-2,2.405261993E-2,4.991147384E-2
2.451879331E0,2.734413743E-2,-2.295191586E-2,9.607315063E-3,3.697016089E-2
2.456896571E0,2.724985778E-2,-1.798155904E-2,4.780769348E-3,3.299616599E-2
2.461913810E0,1.291087270E-2,-1.780112088E-2,-9.502410889E-3,2.395550774E-2
2.466931050E0,2.238151431E-2,-1.767469943E-2,-4.673004150E-3,2.889920674E-2
2.471948289E0,1.747541130E-2,-2.224721014E-2,2.385711670E-2,3.700662611E-2
2.476965529E0,-1.635313034E-3,-2.208468318E-2,-4.831314087E-3,2.266603352E-2
2.481982768E0,-1.103821397E-2,-1.242651045E-2,-1.428604126E-2,2.191691823E-2
2.487000008E0,-1.368761063E-3,1.139669120E-2,8.010864258E-5,1.147887166E-2
2.492017248E0,8.168533444E-3,1.133041084E-2,9.576797485E-3,1.693570779E-2
2.497034487E0,-6.166920066E-3,1.601412892E-2,1.424407959E-2,2.230195130E-2
2.502051727E0,-1.558284461E-2,2.065882087E-2,9.376525879E-3,2.752328402E-2
2.507068966E0,-2.492108941E-2,3.001238406E-2,-4.946708679E-3,3.932268837E-2
2.512086206E0,-2.948300540E-2,2.984444797E-2,1.883506775E-2,4.598585064E-2
2.517103446E0,-2.920764685E-2,2.962540090E-2,9.181022644E-3,4.260331196E-2
2.522120685E0,-2.898690104E-2,3.410415351E-2,1.385307312E-2,4.685340280E-2
2.527137925E0,-3.351652622E-2,2.910014987E-2,-1.475429535E-2,4.677462436E-2
2.532155216E0,-1.901358366E-2,3.363579512E-2,-1.463222504E-2,4.131567604E-2
2.537172508E0,-2.362631261E-2,2.863569558E-2,9.231567383E-3,3.825477154E-2
2.542189800E0,-1.875437796E-2,1.892970502E-2,9.152412415E-3,2.817493705E-2
2.547207091E0,-1.862075925E-2,4.503592849E-3,4.327774048E-3,1.964038319E-2
2.552224383E0,-9.042829275E-3,4.443183541E-3,-5.206108093E-3,1.134099655E-2
2.557241675E0,5.203783512E-3,-5.062147975E-3,-4.158020020E-4,7.271698307E-3
2.562258966E0,9.835451841E-3,-9.738802910E-3,4.334449768E-3,1.450406322E-2
2.567276258E0,4.930749536E-3,-9.628951550E-3,-4.520416260E-4,1.082743462E-2
2.572293550E0,1.436558366E-2,-1.901510358E-2,-5.197525024E-3,2.439176960E-2
2.577310841E0,1.902483404E-2,-2.357453108E-2,4.343032837E-3,3.060334557E-2
2.582328133E0,2.834139764E-2,-2.809692919E-2,4.305839539E-3,4.013991162E-2
2.587345425E0,2.813489735E-2,-3.733012080E-2,-9.975433350E-3,4.779769491E-2
2.592362716E0,2.318084240E-2,-3.224183619E-2,1.385021210E-2,4.205610337E-2
2.597380008E0,1.816494763E-2,-2.244743705E-2,1.848125458E-2,3.428424599E-2
2.602397300E0,8.494690061E-3,-2.223071456E-2,1.832675934E-2,3.003721919E-2
2.607414591E0,8.452802896E-3,-1.257133484E-2,-8.192062378E-4,1.517100640E-2
2.612431883E0,8.411273360E-3,-1.718635857E-2,8.684158325E-3,2.101273534E-2
2.617449175E0,-1.125350595E-3,-2.767041326E-3,-5.633354187E-3,6.376332100E-3
2.622466466E0,-5.886361003E-3,-2.714321017E-3,8.658409119E-3,1.081595270E-2
2.627483758E0,-1.530462503E-2,2.086445689E-3,1.333522797E-2,2.040620268E-2
2.632501050E0,-1.045048237E-2,6.847232580E-3,-1.051902771E-2,1.633239479E-2
2.637518341E0,-5.636781454E-3,1.156832278E-2,3.812789917E-3,1.342150379E-2
2.642535633E0,-1.036018133E-2,2.574706078E-2,-9.679794312E-4,2.777015448E-2
2.647552925E0,-1.974116266E-2,2.556215227E-2,8.537292480E-3,3.340692285E-2
2.652570216E0,-1.479849219E-2,3.002417088E-2,-5.777359009E-3,3.396798618E-2
2.657587508E0,-3.999918699E-4,2.975206077E-2,-5.728721619E-3,3.030121062E-2
2.662604800E0,-2.416105568E-2,2.003675699E-2,8.563995361E-3,3.253567671E-2
2.667622091E0,-1.918074489E-2,2.464888990E-2,-1.004219055E-3,3.124863523E-2
2.672639383E0,-2.374051511E-2,1.967211068E-2,-5.743026733E-3,3.136218029E-2
2.677656675E0,-1.406912506E-2,1.953592896E-2,-5.696296692E-3,2.473945425E-2
2.682673966E0,-4.475980997E-3,1.460367441E-2,-9.002685547E-4,1.530072533E-2
2.687691258E0,-2.350533009E-2,1.451259851E-2,3.853797913E-3,2.789207444E-2
2.692708550E0,4.119724035E-4,9.725332260E-3,-1.042556763E-2,1.426338912E-2
2.697725841E0,5.135148764E-3,2.284944057E-4,-5.592346191E-3,7.595807952E-3
2.702743133E0,-4.425734282E-3,-4.491284490E-3,-5.546569824E-3,8.397809066E-3
2.707760425E0,3.893226385E-4,3.242939711E-4,-5.500793457E-3,5.524080679E-3
2.712777716E0,5.061119795E-3,9.796679020E-3,-7.076263428E-4,1.104946100E-2
2.717795008E0,4.997059703E-3,-9.249299765E-3,-7.028579712E-4,1.053632579E-2
2.722812300E0,4.933536053E-3,-1.389107108E-2,8.798599243E-3,1.716732310E-2
2.727829591E0,9.619817138E-3,-1.844163239E-2,8.723258972E-3,2.255504232E-2
2.732846883E0,9.518548846E-3,-1.820577681E-2,8.648872375E-3,2.229026861E-2
2.737864175E0,2.835899591E-2,-2.752237022E-2,-5.670547485E-3,3.992328419E-2
2.742881466E0,1.860223711E-2,-2.251675725E-2,8.621215820E-3,3.045279863E-2
2.747898758E0,1.372839510E-2,-1.755096018E-2,8.549690247E-3,2.386634113E-2
2.752916050E0,4.094332457E-3,-1.267907023E-2,-5.766868591E-3,1.451823521E-2
2.757933341E0,-6.586164236E-4,-1.254375279E-2,-5.719184875E-3,1.380176022E-2
2.762950633E0,4.177391529E-3,-7.711678743E-3,1.332473755E-2,1.595209139E-2
2.767967925E0,-9.970873594E-3,1.826718450E-3,8.467674255E-3,1.320820684E-2
2.772985216E0,9.135887027E-3,-2.907335758E-3,3.648757935E-3,1.025819026E-2
2.778002508E0,4.288598895E-3,6.642594934E-3,-5.879402161E-3,9.853096858E-3
2.783019800E0,4.333332181E-3,1.131287217E-2,3.668785095E-3,1.265775765E-2
2.788037091E0,-4.223734140E-4,6.498813629E-3,2.263259888E-2,2.355095560E-2
2.793054383E0,-9.886950254E-3,1.122185588E-2,-6.047248840E-3,1.613229845E-2
2.798071675E0,-9.775653481E-3,1.110546291E-2,-1.247406006E-3,1.484758328E-2
2.803088966E0,-1.916228235E-2,1.099003851E-2,-1.235961914E-3,2.212468335E-2
2.808106258E0,-1.422365010E-2,1.567755640E-2,1.301956177E-2,2.485169985E-2
2.813123550E0,-9.377732873E-3,2.512608469E-2,-6.084442139E-3,2.750058984E-2
2.818140841E0,1.755356789E-4,2.014629543E-2,8.212089539E-3,2.175643461E-2
2.823158133E0,-1.409408450E-2,1.995553076E-2,3.395080566E-3,2.466562381E-2
2.828175425E0,-1.389615238E-2,1.032094657E-2,8.115768433E-3,1.911781071E-2
2.833192716E0,-4.305243492E-3,1.501309872E-2,-1.449584961E-3,1.568532917E-2
2.838210008E0,-4.342824221E-3,5.369082093E-3,-1.438140869E-3,7.053751760E-3
2.843227300E0,4.199892282E-4,-4.194587469E-3,1.281929016E-2,1.349463431E-2
2.848244591E0,5.194678903E-3,5.669444799E-4,-1.532554626E-3,5.445625642E-3
2.853261883E0,5.232632160E-3,5.918741226E-4,-1.576423645E-2,1.662052662E-2
2.858279175E0,9.916424751E-3,5.366072059E-3,8.109092712E-3,1.388839781E-2
2.863296466E0,9.811908007E-3,6.540715694E-4,3.291130066E-3,1.036980643E-2
2.868313758E0,-4.537239671E-3,-4.070222378E-3,-1.098251343E-2,1.256060728E-2
2.873331050E0,5.027249455E-3,-4.006639123E-3,-6.142616272E-3,8.891463817E-3
2.878348341E0,1.446047425E-2,-1.344059408E-2,8.152961731E-3,2.135943983E-2
2.883365633E0,9.568810463E-3,-3.224231303E-2,3.334999084E-3,3.379720553E-2
2.888382925E0,1.426726580E-2,-2.244696021E-2,-6.189346313E-3,2.730803735E-2
2.893400216E0,4.628717899E-3,-1.273421943E-2,3.357887268E-3,1.395925431E-2
2.898417508E0,9.369090199E-3,-2.209448814E-2,3.330230713E-3,2.422884013E-2
2.903434800E0,1.876536012E-2,-1.243625581E-2,-6.194114685E-3,2.334879559E-2
2.908452091E0,4.393160343E-3,-7.606029510E-3,-1.393318176E-3,8.893417693E-3
2.913469383E0,4.334673285E-3,1.984000206E-3,-6.131172180E-3,7.766396952E-3
2.918486675E0,4.328221083E-3,1.997128129E-3,8.165359497E-3,9.454898953E-3
2.923503966E0,-4.266649485E-4,6.758660078E-3,-6.148338318E-3,9.146780477E-3
2.928521258E0,-5.141943693E-3,1.153206825E-2,-1.349449158E-3,1.269839345E-2
2.933538550E0,-5.070194602E-3,1.626473665E-2,-6.087303162E-3,1.809153922E-2
2.938555841E0,-4.998266697E-3,6.661862135E-3,-1.078510284E-2,1.362650067E-2
2.943573133E0,-9.675443172E-3,1.613299549E-2,-1.069545746E-2,2.163979099E-2
2.948590425E0,-1.426206529E-2,1.122814417E-2,-1.060485840E-2,2.102238687E-2
2.953607716E0,-4.565745592E-3,2.540875971E-2,3.729820251E-3,2.608376242E-2
2.958625008E0,-1.874427497E-2,2.522571385E-2,3.698348999E-3,3.164430863E-2
2.963642300E0,-1.386146247E-2,5.999609828E-3,-1.080513000E-3,1.514275300E-2
2.968659591E0,-4.219293594E-3,2.967020869E-2,-1.531600952E-2,3.365566624E-2
2.973676883E0,-8.902177215E-3,2.470505238E-2,3.805160522E-3,2.653427253E-2
2.978694175E0,-8.849099278E-3,1.028430462E-2,-9.756088257E-4,1.360240023E-2
2.983711466E0,7.005482912E-4,5.480721593E-3,3.780364990E-3,6.694791748E-3
2.988728758E0,-1.362425089E-2,1.501324773E-2,-1.002311707E-3,2.029833610E-2
2.993746050E0,-8.784100413E-3,1.496934891E-2,-9.956359863E-4,1.738485311E-2
2.998763341E0,5.461931229E-3,5.378231406E-3,-9.889602661E-4,7.728913780E-3
3.003780633E0,1.014223695E-2,-4.134893417E-3,-9.813308716E-4,1.099660512E-2
3.008797925E0,1.478512585E-2,-1.361839473E-2,-9.727478027E-4,2.012478223E-2
3.013815216E0,1.944087446E-2,-3.977283835E-3,-1.046180725E-2,2.243247194E-2
3.018832508E0,1.930932701E-2,-1.341052353E-2,-8.773803711E-4,2.352577410E-2
3.023849800E0,2.387580276E-2,-1.326815784E-2,-1.036834717E-2,2.921644387E-2
3.028867091E0,9.461790323E-3,-1.317855716E-2,8.712768555E-3,1.841499880E-2
3.033884383E0,1.410956681E-2,-1.303908229E-2,3.890991211E-3,1.960197324E-2
3.038901675E0,1.866702735E-2,-2.244932950E-2,3.857612610E-3,2.945015246E-2
3.043918966E0,1.848958433E-2,-2.703267336E-2,8.573532104E-3,3.385462465E-2
3.048936258E0,2.306210995E-2,-2.682931721E-2,8.502006531E-3,3.638622394E-2
3.053953550E0,3.853276372E-3,-1.238310337E-2,-1.066207886E-3,1.301252424E-2
3.058970841E0,8.598566055E-3,-1.699969172E-2,-1.057624817E-3,1.907992210E-2
3.063988133E0,8.557364345E-3,-7.330417633E-3,-1.049041748E-3,1.131653639E-2
3.069005425E0,3.663331270E-3,-1.673762500E-2,8.455276489E-3,1.910653781E-2
3.074022716E0,-1.189917326E-3,7.173076272E-3,3.634452820E-3,8.128848242E-3
3.079040008E0,-1.150324941E-3,2.138844132E-2,-1.144409180E-3,2.144990308E-2
3.084057300E0,3.637433052E-3,6.994381547E-3,-1.134872437E-3,7.964937406E-3
3.089074591E0,-1.535642147E-2,2.218186855E-3,-1.062202454E-2,1.880338902E-2
3.094091883E0,-1.994805038E-2,2.117083967E-2,3.712654114E-3,2.932427265E-2
3.099109175E0,-1.505520940E-2,2.572099864E-2,-1.531219482E-2,3.350660251E-2
3.104126466E0,-4.813879728E-2,2.078875899E-2,-5.687713623E-3,5.274340139E-2
3.109143758E0,-3.815940022E-2,2.064517140E-2,-5.639076233E-3,4.375113837E-2
3.114160998E0,-3.301165998E-2,2.525128424E-2,-1.033973694E-2,4.282881285E-2
3.119178237E0,-2.320988476E-2,1.557351649E-2,3.992080688E-3,2.823419690E-2
3.124195477E0,-2.303835750E-2,1.072490215E-2,3.957748413E-3,2.571873276E-2
3.129212716E0,-1.806819439E-2,2.491067350E-2,8.673667908E-3,3.197239149E-2
3.134229956E0,-1.324102283E-2,1.048918068E-2,-8.974075317E-4,1.691605560E-2
3.139247196E0,-8.403286338E-3,-3.864690661E-3,-5.638122559E-3,1.083233498E-2
3.144264435E0,-3.503516316E-3,-3.802821040E-3,1.815223694E-2,1.887431536E-2
3.149281675E0,-8.192360401E-3,-8.489012718E-3,-9.927749634E-4,1.183907547E-2
3.154298914E0,1.559731364E-2,-3.639161587E-3,-5.733489990E-3,1.701154306E-2
3.159316154E0,1.069617271E-2,-1.307713985E-2,8.559226990E-3,1.893885066E-2
3.164333393E0,5.785092711E-3,-1.293849945E-2,3.737449646E-3,1.465744164E-2
3.169350633E0,5.714997649E-3,1.444473863E-3,-1.043319702E-3,5.986336014E-3
3.174367873E0,1.994177699E-2,-3.287360072E-3,-1.053142548E-2,2.279017614E-2
3.179385112E0,1.500366628E-2,-1.272922754E-2,-9.479522705E-4,1.969877786E-2
3.184402352E0,1.965603232E-2,-1.259444654E-2,3.808021545E-3,2.365334476E-2
3.189419591E0,1.952190697E-2,-1.245982945E-2,8.524894714E-3,2.467845278E-2
3.194436831E0,1.458884776E-2,-1.707483828E-2,-1.044273376E-3,2.248277314E-2
3.199454071E0,1.919388771E-2,-2.657383680E-3,-5.784988403E-3,2.022209446E-2
3.204471310E0,9.565830231E-3,-7.406607270E-3,-5.735397339E-3,1.338871622E-2
3.209488550E0,9.567365050E-3,-7.366806269E-3,-9.374618530E-4,1.211128166E-2
3.214505789E0,1.431816816E-2,-2.526313066E-3,-5.677223206E-3,1.560842915E-2
3.219523029E0,9.479239583E-3,7.072001696E-3,-1.037979126E-2,1.573560478E-2
3.224540268E0,1.412686706E-2,-7.202774286E-3,-7.972717285E-4,1.587715253E-2
3.229557508E0,9.238749743E-3,2.383902669E-3,-1.028823853E-2,1.403158368E-2
3.234574748E0,-3.571212292E-4,1.194225252E-2,-5.455970764E-3,1.313440321E-2
3.239591987E0,-9.820699692E-3,1.657025516E-2,1.358413696E-2,2.357007161E-2
3.244609227E0,-1.930931211E-2,1.641026139E-2,-1.027202606E-2,2.734338553E-2
3.249626466E0,-1.442256570E-2,1.630221307E-2,4.057884216E-3,2.214134090E-2
3.254643706E0,-1.427347958E-2,6.698071957E-3,-5.473136902E-3,1.668986563E-2
3.259660946E0,-2.367343009E-2,1.142041385E-2,-1.017665863E-2,2.818548430E-2
3.264678185E0,-1.400102675E-2,2.085189521E-2,-5.344390869E-3,2.567864478E-2
3.269695477E0,-9.156957269E-3,1.590867341E-2,-5.299568176E-3,1.910552744E-2
3.274712768E0,-9.101748466E-3,6.309732795E-3,-5.083084106E-4,1.108661042E-2
3.279730060E0,-8.995443583E-3,6.287768483E-3,-1.474952698E-2,1.838484658E-2
3.284747352E0,-4.193082452E-3,1.096291840E-2,4.367828369E-3,1.252379515E-2
3.289764643E0,-1.372779906E-2,1.090218127E-2,-4.186630249E-4,1.753525883E-2
3.294781935E0,6.102174520E-4,1.084098220E-2,-4.158020020E-4,1.086610103E-2
3.299799227E0,5.279406905E-3,1.282334328E-3,-4.138946533E-4,5.448653722E-3
3.304816518E0,-4.283472896E-3,6.049811840E-3,4.337310791E-3,8.588400797E-3
3.309833810E0,1.477669179E-2,6.030008197E-3,-5.195617676E-3,1.678410147E-2
3.314851102E0,9.934708476E-3,6.009414792E-3,1.384162903E-2,1.806660435E-2
3.319868393E0,5.081534386E-3,1.240476966E-3,-5.269050598E-3,7.424531569E-3
3.324885685E0,1.451508701E-2,6.060823798E-3,1.376724243E-2,2.090354755E-2
3.329902977E0,9.622961283E-3,-8.206486702E-3,-5.342483521E-3,1.372916378E-2
3.334920268E0,-4.725381732E-3,-1.760640740E-2,-5.298614502E-3,1.898394400E-2
3.339937560E0,4.062056541E-5,-7.933020592E-3,4.241943359E-3,8.996029636E-3
3.344954852E0,-4.678562284E-3,6.459802389E-3,4.205703735E-3,9.016980418E-3
3.349972143E0,4.783973098E-3,-7.809877396E-3,1.366615295E-2,1.645127108E-2
3.354989435E0,9.521499276E-3,1.780897379E-3,-5.441665649E-3,1.111045764E-2
3.360006727E0,9.421050549E-3,-2.951830626E-3,4.099845886E-3,1.069009980E-2
3.365024018E0,1.881688833E-2,-2.898529172E-3,-6.837844849E-4,1.905109758E-2
3.370041310E0,1.388970017E-2,-7.593214512E-3,1.356601715E-2,2.084748184E-2
3.375058602E0,-5.450099707E-4,-7.500275970E-3,1.345062256E-2,1.541007536E-2
3.380075893E0,-5.310863256E-3,-2.711191773E-3,8.589744568E-3,1.045655493E-2
3.385093185E0,-5.340829492E-3,1.158560812E-2,8.516311646E-3,1.533878546E-2
3.390110477E0,-5.697011948E-4,1.157027483E-2,8.443832397E-3,1.433506626E-2
3.395127768E0,-5.868375301E-4,6.703451276E-3,-5.871772766E-3,8.930753200E-3
3.400145060E0,-1.010005176E-2,1.137511432E-2,-5.823135376E-3,1.628843691E-2
3.405162352E0,-5.289271474E-3,1.605847478E-2,-1.052379608E-2,1.991485096E-2
3.410179643E0,-4.677772522E-4,1.115329564E-2,3.809928894E-3,1.179535406E-2
3.415196935E0,-1.468047500E-2,-3.156438470E-3,3.778457642E-3,1.548406252E-2
3.420214227E0,-9.831532836E-3,-3.100484610E-3,-5.750656128E-3,1.180432500E-2
3.425231518E0,-5.074560642E-3,1.594901085E-2,-1.520156860E-2,2.260994915E-2
3.430248810E0,-1.460272074E-2,2.534274757E-2,-1.507663727E-2,3.290591586E-2
3.435266102E0,-9.806767106E-3,2.041175961E-2,-5.455970764E-3,2.329335160E-2
3.440283393E0,-5.050778389E-3,2.971580625E-2,-6.628036499E-4,3.014927548E-2
3.445300685E0,-1.452755928E-2,2.474930882E-2,-6.580352783E-4,2.870559660E-2
3.450317977E0,-1.828819513E-4,1.507572830E-2,-5.401611328E-3,1.601525630E-2
3.455335268E0,1.399068534E-2,1.017968357E-2,-1.010608673E-2,2.003742057E-2
3.460352560E0,-4.971921444E-4,1.007197797E-2,-1.002407074E-2,1.421878808E-2
3.465369852E0,-1.006428897E-2,5.197525024E-4,-9.942054749E-3,1.415642991E-2
3.470387143E0,-5.052983761E-4,-4.203423858E-3,-9.860038757E-3,1.073053880E-2
3.475404435E0,4.173174500E-3,-4.139676690E-3,-5.031585693E-3,7.737516598E-3
3.480421727E0,-6.835609674E-4,6.729662418E-4,-2.431869507E-4,9.895852929E-4
3.485439018E0,-6.997436285E-4,6.970167160E-4,4.506111145E-3,4.613080435E-3
3.490456310E0,1.352970302E-2,-8.827701211E-3,-1.927375793E-2,2.514873590E-2
3.495473602E0,1.339586079E-2,-1.816898584E-2,-9.617805481E-3,2.453697853E-2
3.500490893E0,8.513838053E-3,-8.490934968E-3,-9.538650513E-3,1.534820083E-2
3.505508185E0,3.671735525E-3,-1.313999295E-2,3.719329834E-5,1.364340280E-2
3.510525477E0,-1.129239798E-3,1.244649291E-3,-4.712104797E-3,5.002825801E-3
3.515542768E0,-5.838662386E-3,6.012424827E-3,7.534027100E-5,8.381223473E-3
3.520560060E0,3.685116768E-3,5.940407515E-3,7.438659668E-5,6.990998527E-3
3.525577352E0,8.381798863E-3,-3.627076745E-3,9.571075439E-3,1.322935081E-2
3.530594643E0,1.783941686E-2,1.182228327E-3,4.742622375E-3,1.849688960E-2
3.535611935E0,8.223414421E-3,5.898967385E-3,-4.482269287E-5,1.012049258E-2
3.540629227E0,-6.008595228E-3,1.062889397E-2,4.705429077E-3,1.308501687E-2
3.545646518E0,-1.127988100E-3,5.822420120E-3,-8.106231689E-5,5.931231264E-3
3.550663810E0,-5.837425590E-3,1.999747753E-2,4.669189453E-3,2.134891040E-2
3.555681102E0,-1.011371613E-3,5.665615201E-3,-1.192092896E-4,5.756411990E-3
3.560698393E0,-1.025602221E-3,8.985847235E-4,-4.867553711E-3,5.054937542E-3
3.565715685E0,-9.881556034E-4,5.668297410E-3,4.670143127E-3,7.410552196E-3
3.570732977E0,-5.698755383E-3,9.021908045E-4,-1.173019409E-4,5.770920283E-3
3.575750268E0,-1.037009060E-2,5.672827363E-3,-1.436138153E-2,1.860024271E-2
3.580767560E0,-1.035635173E-2,1.515313983E-2,1.907348633E-6,1.835406417E-2
3.585784852E0,-7.956922054E-4,8.100569248E-4,-4.747390747E-3,4.881294625E-3
3.590802143E0,-1.035952568E-2,-3.967106342E-3,-9.457588196E-3,1.457750594E-2
3.595819435E0,-1.029585302E-2,7.915943861E-4,-4.630088806E-3,1.131675454E-2
3.600836727E0,-5.433440208E-3,7.611811161E-4,1.583099365E-4,5.488782308E-3
3.605854018E0,-6.099790335E-4,5.532994866E-3,1.573562622E-4,5.568740217E-3
3.610871310E0,4.121720791E-3,1.021346450E-2,-4.592895508E-3,1.193306870E-2
3.615888602E0,1.356172562E-2,5.356997252E-3,1.935958862E-4,1.458270553E-2
3.620905893E0,1.342605054E-2,-4.155948758E-3,-4.557609558E-3,1.477506508E-2
3.625923185E0,1.334461570E-2,6.577670574E-4,-4.519462585E-3,1.410450168E-2
3.630940477E0,3.713756800E-3,6.809830666E-4,2.660751343E-4,3.785039429E-3
3.635957768E0,-1.139894128E-3,1.025258005E-2,9.757995605E-3,1.419976178E-2
3.640975060E0,-1.153051853E-3,6.988346577E-4,1.783370972E-4,1.360037711E-3
3.645992352E0,3.633961082E-3,-8.826836944E-3,-4.570960999E-3,1.058359145E-2
3.651009643E0,-1.167476177E-3,-3.976091743E-3,-4.533767700E-3,6.142259823E-3
3.656026935E0,-1.127287745E-3,7.845759392E-4,-4.494667053E-3,4.699826485E-3
3.661044227E0,3.661051393E-3,5.557134748E-3,5.040168762E-3,8.347954543E-3
3.666061518E0,-1.139059663E-3,7.929056883E-4,2.489089966E-4,1.410004268E-3
3.671078810E0,-1.151457429E-3,-8.681043983E-3,-9.250640869E-3,1.273816059E-2
3.676096102E0,-5.911469460E-3,-3.829613328E-3,-4.426002502E-3,8.318708287E-3
3.681113393E0,-1.135587692E-3,-3.768056631E-3,3.585815430E-4,3.951757951E-3
3.686130685E0,3.600493073E-3,-1.320402324E-2,-4.393577576E-3,1.437404968E-2
3.691147977E0,-1.199111342E-3,-3.566399217E-3,-4.358291626E-3,5.757758008E-3
3.696165268E0,-5.855619907E-3,1.190841198E-3,5.176544189E-3,7.905883695E-3
3.701182560E0,3.772974014E-3,1.160889864E-3,-4.362106323E-3,5.883108852E-3
3.706199852E0,-9.765028954E-4,5.930319428E-3,-4.325866699E-3,7.405090758E-3
3.711217143E0,3.757476807E-3,5.909591913E-3,9.954452515E-3,1.217099147E-2
3.716234435E0,-5.792722106E-3,1.141473651E-3,-4.374504089E-3,7.348120680E-3
3.721251727E0,3.731459379E-3,5.911067128E-3,-4.339218140E-3,8.227594895E-3
3.726269018E0,-1.070022583E-3,1.194506884E-3,9.940147400E-3,1.006868042E-2
3.731286310E0,3.614738584E-3,1.071214676E-2,-9.138107300E-3,1.453689885E-2
3.736303602E0,3.563508391E-3,5.904972553E-3,4.339218140E-4,6.910541299E-3
3.741320893E0,-5.933523178E-3,1.136898994E-3,9.927749634E-3,1.162150805E-2
3.746338185E0,-1.105114818E-3,5.906522274E-3,9.844779968E-3,1.153377548E-2
3.751355477E0,-1.117005944E-3,-3.609120846E-3,1.451015472E-2,1.499393363E-2
3.756372768E0,3.618910909E-3,-3.549396992E-3,1.430511475E-4,5.071015559E-3
3.761390060E0,-1.067939401E-2,1.257374883E-3,-1.410484314E-2,1.773632002E-2
3.766407352E0,-5.863785744E-3,-8.220449090E-3,-1.873683929E-2,2.128447587E-2
3.771424643E0,-5.887582898E-3,-3.372862935E-3,-1.383399963E-2,1.540841921E-2
3.776441935E0,1.308205724E-2,1.433387399E-3,-8.972167969E-3,1.592779392E-2
3.781459227E0,-1.345112920E-3,-7.993400097E-3,5.970001221E-4,8.127741570E-3
3.786476518E0,8.140429854E-3,-1.264660060E-2,5.339622498E-3,1.595978300E-2
3.791493810E0,-6.194800138E-3,-1.251156628E-2,1.479148865E-2,2.033968967E-2
3.796511102E0,8.131995797E-3,1.919418573E-3,9.919166565E-3,1.296932491E-2
3.801528393E0,1.289397478E-2,-7.563918829E-3,5.088806152E-3,1.579124447E-2
3.806545685E0,8.066922426E-3,2.024799585E-3,9.795188904E-3,1.284993294E-2
3.811562977E0,-6.266906857E-3,2.038508654E-3,-4.532814026E-3,7.998502490E-3
3.816580268E0,3.208875656E-3,-2.697333694E-3,2.517700195E-4,4.199509516E-3
3.821597560E0,-1.589015126E-3,-2.646163106E-3,-1.399707794E-2,1.433336454E-2
3.826614852E0,7.899329066E-3,2.154022455E-3,-1.863002777E-2,2.034986848E-2
3.831632143E0,7.811620831E-3,6.914228201E-3,-8.978843689E-3,1.376399672E-2
3.836649435E0,2.924591303E-3,6.834700704E-3,-8.905410767E-3,1.160054779E-2
3.841666727E0,-6.618663669E-3,1.155588031E-2,5.413055420E-3,1.437519556E-2
3.846684018E0,-1.785323024E-3,6.740733981E-3,5.368232727E-3,8.800158835E-3
3.851701310E0,7.704660296E-3,1.965686679E-3,5.741119385E-4,7.972158987E-3
3.856718602E0,-1.826867461E-3,1.978948712E-3,1.481437683E-2,1.505720570E-2
3.861735893E0,-6.582036614E-3,6.792187691E-3,-4.304885864E-3,1.039177857E-2
3.866753185E0,-1.801326871E-3,-2.681151032E-3,4.777908325E-4,3.265215680E-3
3.871770477E0,-1.808196306E-3,6.919413805E-3,-4.276275635E-3,8.332730320E-3
3.876787768E0,7.681205869E-3,2.141937613E-3,-4.241943359E-3,9.032325492E-3
3.881805060E0,7.594540715E-3,2.152785659E-3,5.407333374E-4,7.912264360E-3
3.886822352E0,1.230943203E-2,6.912991405E-3,-4.212379456E-3,1.473281058E-2
3.891839643E0,-2.060532570E-3,2.084955573E-3,1.006793976E-2,1.048600235E-2
3.896856935E0,-2.066016197E-3,-7.452264428E-3,1.948070526E-2,2.095954545E-2
3.901874175E0,1.222559810E-2,1.163253188E-2,3.242492676E-4,1.687857175E-2
3.906891414E0,2.655610442E-3,-2.681210637E-3,-4.426956177E-3,5.817138325E-3
3.911908654E0,-6.783068180E-3,2.066761255E-3,-4.387855530E-3,8.338752435E-3
3.916925893E0,-1.619386673E-2,6.827697158E-3,-9.099960327E-3,1.979060500E-2
3.921943133E0,-1.782968640E-3,-2.644047141E-3,4.720687866E-4,3.223788361E-3
3.926960373E0,3.010839224E-3,2.208635211E-3,2.420997620E-2,2.449624808E-2
3.931977612E0,7.712364197E-3,6.968379021E-3,5.013465881E-3,1.154009133E-2
3.936994852E0,2.878502011E-3,6.940901279E-3,9.718894958E-3,1.228490145E-2
3.942012091E0,1.238119602E-2,2.164199948E-3,9.637832642E-3,1.583873715E-2
3.947029331E0,7.506862283E-3,6.923377514E-3,5.912780762E-5,1.021222961E-2
3.952046571E0,2.724707127E-3,6.945952773E-3,5.722045898E-5,7.461471908E-3
3.957063810E0,2.731665969E-3,6.969287992E-3,5.626678467E-5,7.485729091E-3
3.962081050E0,7.435515523E-3,2.192348242E-3,-4.693984985E-3,9.062382521E-3
3.967098289E0,2.602398396E-3,-2.545714378E-3,-4.655838013E-3,5.910157926E-3
3.972115529E0,-6.938949227E-3,-7.244303823E-3,-1.411533356E-2,1.731680097E-2
3.977132768E0,2.593994141E-3,-7.205843925E-3,-4.500389099E-3,8.882932755E-3
3.982150008E0,-6.894171238E-3,2.381786704E-3,9.782791138E-3,1.220268443E-2
3.987167248E0,-2.110093832E-3,-2.408474684E-3,2.040863037E-4,3.208566269E-3
3.992184487E0,2.686440945E-3,7.139191031E-3,4.950523376E-3,9.093552399E-3
3.997201727E0,-2.106323838E-3,2.309277654E-3,1.611709595E-4,3.129750704E-3
4.002218966E0,-6.807610393E-3,-2.428814769E-3,-9.337425232E-3,1.180805701E-2
4.007236206E0,-6.773531437E-3,-2.431437373E-3,-4.510879517E-3,8.493565202E-3
4.012253446E0,2.757266164E-3,2.366021276E-3,5.023002625E-3,6.199284535E-3
4.017270685E0,7.460132241E-3,-2.425044775E-3,1.447772980E-2,1.646630120E-2
4.022287925E0,-2.069354057E-3,2.373307943E-3,1.115798950E-4,3.150756557E-3
4.027305164E0,-2.023205161E-3,7.130742073E-3,4.858970642E-3,8.862868460E-3
4.032322404E0,-1.925870776E-3,1.179695129E-2,-4.676818848E-3,1.283548490E-2
4.037339643E0,7.616072893E-3,1.647584140E-2,1.435661316E-2,2.314239092E-2
4.042356883E0,-1.915484667E-3,1.161874831E-2,4.739761353E-3,1.269368864E-2
4.047374123E0,-1.136761904E-2,1.149906218E-2,-4.796028137E-3,1.686573685E-2
4.052391414E0,-1.129476726E-2,6.684377789E-3,-2.375125885E-2,2.713622986E-2
4.057408706E0,-1.724734902E-3,6.607711315E-3,4.937171936E-3,8.426875224E-3
4.062425998E0,-1.681461930E-3,6.581351161E-3,-9.349822998E-3,1.155684591E-2
4.067443289E0,-1.113554835E-2,6.503641605E-3,-9.270668030E-3,1.588216223E-2
4.072460581E0,-6.316915154E-3,1.678079367E-3,-4.445075989E-3,7.904306926E-3
4.077477873E0,-6.233826280E-3,1.119169593E-2,3.404617310E-4,1.281524725E-2
4.082495164E0,-1.402914524E-3,1.632019877E-3,-4.410743713E-3,4.907781387E-3
4.087512456E0,-1.360774040E-3,1.649007201E-3,-4.373550415E-3,4.868148927E-3
4.092529748E0,3.377959132E-3,1.665860415E-3,9.907722473E-3,1.059946524E-2
4.097547039E0,3.327921033E-3,1.681625843E-3,9.823799133E-3,1.050761406E-2
4.102564331E0,-1.417845488E-3,1.698195934E-3,2.450942993E-4,2.225809173E-3
4.107581623E0,3.372922540E-3,6.463140249E-3,4.991531372E-3,8.835393244E-3
4.112598914E0,1.292304695E-2,-3.058075905E-3,1.444816589E-2,1.962412975E-2
4.117616206E0,-6.097406149E-3,1.745551825E-3,4.831314087E-3,7.972885847E-3
4.122633498E0,1.297631860E-2,-2.988785505E-3,4.791259766E-3,1.415181449E-2
4.127650789E0,-1.349195838E-3,6.560876966E-3,-9.493827820E-3,1.161887269E-2
4.132668081E0,-1.360610127E-3,6.586477160E-3,-4.668235779E-3,8.186902136E-3
4.137685373E0,-1.422733068E-3,6.561234593E-3,1.173019409E-4,6.714739646E-3
4.142702664E0,3.316521645E-3,1.788631082E-3,1.153945923E-4,3.769858469E-3
4.147719956E0,1.276478171E-2,-2.944186330E-3,1.134872437E-4,1.310041086E-2
4.152737248E0,7.939577103E-3,1.806929708E-3,-9.383201599E-3,1.242362072E-2
4.157754539E0,3.154590726E-3,1.769959927E-3,-4.555702209E-3,5.817097507E-3
4.162771831E0,3.105655313E-3,1.732349396E-3,-4.517555237E-3,5.749298624E-3
4.167789123E0,3.109440207E-3,6.444513798E-3,5.018234253E-3,8.739739785E-3
4.172806414E0,-1.635298133E-3,1.116894186E-2,2.279281616E-4,1.129032388E-2
4.177823706E0,7.852673531E-3,-3.140941262E-3,-4.523277283E-3,9.591143361E-3
4.182840998E0,1.246152818E-2,-3.086075187E-3,2.613067627E-4,1.284063183E-2
4.187858289E0,-6.606653333E-3,6.517857313E-3,5.006790161E-3,1.054505950E-2
4.192875581E0,-1.132197678E-2,1.124167442E-2,2.155303955E-4,1.595646751E-2
4.197892873E0,-1.599878073E-2,6.428197026E-3,1.445865631E-2,2.250189868E-2
4.202910164E0,-1.642614603E-3,-3.093674779E-3,9.589195251E-3,1.020890160E-2
4.207927456E0,3.098472953E-3,-3.037303686E-3,1.900577545E-2,1.949474926E-2
4.212944748E0,-6.342321634E-3,-2.981409431E-3,-1.459121704E-4,7.009645944E-3
4.217962039E0,-1.100750268E-2,6.519466639E-3,-1.438903809E-2,1.925390811E-2
4.222979331E0,-6.189167500E-3,6.340101361E-3,-4.770278931E-3,1.006271537E-2
4.227996623E0,-6.107926369E-3,-7.980152965E-3,-9.477615356E-3,1.381357299E-2
4.233013914E0,-6.078913808E-3,6.309941411E-3,-9.398460388E-3,1.284910936E-2
4.238031206E0,-1.085098088E-2,-7.959440351E-3,-9.322166443E-3,1.637068306E-2
4.243048498E0,-1.337766647E-3,1.581013203E-3,-1.399421692E-2,1.414663669E-2
4.248065789E0,-6.148576736E-3,-3.151014447E-3,-4.382133484E-3,8.181502417E-3
4.253083081E0,3.377780318E-3,-7.792040706E-3,4.005432129E-4,8.502101687E-3
4.258100373E0,3.326192498E-3,1.849204302E-3,3.957748413E-4,3.826192730E-3
4.263117664E0,-1.524224877E-3,-7.686063647E-3,3.919601440E-4,7.845538135E-3
4.268134956E0,1.271133125E-2,1.903668046E-3,-4.361152649E-3,1.357282382E-2
4.273152248E0,-1.611188054E-3,-7.632046938E-3,9.922027588E-3,1.262104191E-2
4.278169539E0,3.179639578E-3,-2.842813730E-3,3.433227539E-4,4.278968131E-3
4.283186831E0,7.878988981E-3,1.958072186E-3,3.395080566E-4,8.125747951E-3
4.288204123E0,7.790684700E-3,6.718963385E-3,3.356933594E-4,1.029329525E-2
4.293221414E0,2.954617143E-3,-2.805337310E-3,5.080223083E-3,6.512169106E-3
4.298238706E0,-6.589666009E-3,-1.694719493E-2,2.870559692E-4,1.818553038E-2
4.303255998E0,-1.808896661E-3,2.165168524E-3,2.841949463E-4,2.835635490E-3
4.308273289E0,-1.868039370E-3,1.642131805E-2,1.927375793E-2,2.538950576E-2
4.313290581E0,-6.622865796E-3,1.626256108E-2,1.192092896E-4,1.755982503E-2
4.318307873E0,-1.893386245E-3,1.135568321E-2,-1.412868500E-2,1.822515274E-2
4.323325164E0,7.597491145E-3,-2.954810858E-3,4.981994629E-3,9.553692971E-3
4.328342456E0,-1.984700561E-3,1.847952604E-3,1.907348633E-4,2.718518886E-3
4.333359748E0,-6.686210632E-3,-7.633849978E-3,1.888275146E-4,1.014971595E-2
4.338377039E0,-6.600037217E-3,-1.218502223E-2,-4.563331604E-3,1.458969683E-2
4.343394331E0,-1.606312394E-2,-7.252812386E-3,4.969596863E-3,1.831185767E-2
4.348411623E0,3.094404936E-3,-2.414241433E-3,4.928588867E-3,6.300388228E-3
4.353428914E0,-1.119877398E-2,2.384021878E-3,1.438331604E-2,1.838412030E-2
4.358446206E0,-6.378054619E-3,2.343192697E-3,-4.730224609E-3,8.279200299E-3
4.363463498E0,-1.599043608E-3,-2.447694540E-3,-1.418781281E-2,1.448593046E-2
4.368480789E0,-1.607596874E-3,-7.197707891E-3,-9.321212769E-3,1.188597384E-2
4.373498081E0,-6.416156888E-3,2.285793424E-3,5.002021790E-3,8.450570559E-3
4.378515373E0,-1.118616760E-2,-2.453997731E-3,4.958152771E-3,1.247941222E-2
4.383532664E0,-1.586410403E-2,2.343639731E-3,4.916191101E-3,1.677293591E-2
4.388549956E0,-1.560628414E-3,1.184980571E-2,-4.623413086E-3,1.281520211E-2
4.393567248E0,3.127411008E-3,1.652920246E-2,4.910469055E-3,1.752449543E-2
4.398584539E0,3.131017089E-3,1.167260110E-2,1.211166382E-4,1.208584105E-2
4.403601831E0,-6.413966417E-3,6.856471300E-3,9.615898132E-3,1.343933260E-2
4.408619123E0,-6.330847740E-3,6.880551577E-3,-4.710197449E-3,1.046936403E-2
4.413636414E0,-1.104769111E-2,6.905376911E-3,4.823684692E-3,1.389257511E-2
4.418653706E0,-1.480504870E-3,1.637446880E-2,4.782676697E-3,1.712276612E-2
4.423670998E0,-1.093627512E-2,6.769716740E-3,4.742622375E-3,1.370852455E-2
4.428688289E0,-6.067737937E-3,1.993492246E-3,4.703521729E-3,7.931870628E-3
4.433705581E0,-1.548449695E-2,2.006515861E-3,9.412765503E-3,1.823172801E-2
4.438722873E0,-5.829557776E-3,-2.678439021E-3,-4.912376404E-3,8.080174589E-3
4.443740164E0,-1.055136323E-2,2.122014761E-3,-4.872322083E-3,1.181413286E-2
4.448757456E0,-9.890794754E-4,2.133026719E-3,4.664421082E-3,5.223495498E-3
4.453774748E0,3.796562552E-3,2.092391253E-3,4.626274109E-3,6.339905401E-3
4.458792039E0,-5.702406168E-3,-7.443949580E-3,-9.656906128E-3,1.346052218E-2
4.463809331E0,-5.728349090E-3,-2.655342221E-3,-4.828453064E-3,7.948508325E-3
4.468826623E0,1.318839192E-2,2.144917846E-3,-4.791259766E-3,1.419473579E-2
4.473843914E0,1.305660605E-2,-7.340312004E-3,9.492874146E-3,1.773329641E-2
4.478861206E0,-1.320347190E-3,-1.199895144E-2,-8.392333984E-5,1.207166912E-2
4.483878498E0,8.165761828E-3,2.324625850E-3,-4.831314087E-3,9.768579599E-3
4.488895789E0,-6.220459938E-3,-7.161155343E-3,-4.482269287E-5,9.485687996E-3
4.493913081E0,-6.190508604E-3,-7.123395801E-3,-4.482269287E-5,9.437540653E-3
4.498930373E0,-6.109252572E-3,2.462595701E-3,9.452819824E-3,1.152142123E-2
4.503947664E0,3.468334675E-3,2.471715212E-3,-1.230239868E-4,4.260734257E-3
4.508964956E0,-5.977094173E-3,7.176771760E-3,-4.868507385E-3,1.053252447E-2
4.513982248E0,-1.064532995E-2,2.399042249E-3,-7.915496826E-5,1.091259451E-2
4.518999539E0,-5.778446794E-3,1.185414195E-2,-4.825592041E-3,1.404270157E-2
4.524016831E0,3.797173500E-3,6.985887885E-3,4.712104797E-3,9.242569326E-3
4.529034123E0,-9.540617466E-4,1.165330410E-2,-1.906871796E-2,2.236796224E-2
4.534051414E0,-5.768075585E-3,1.158583164E-2,-9.414672852E-3,1.600431991E-2
4.539068706E0,-5.794227123E-3,1.626648009E-2,-1.408672333E-2,2.228468570E-2
4.544085998E0,3.625288606E-3,1.615962386E-2,-4.475593567E-3,1.715538104E-2
4.549103289E0,-1.226857305E-3,6.506055593E-3,3.089904785E-4,6.627926776E-3
4.554120581E0,-1.073552668E-2,-7.867127657E-3,5.055427551E-3,1.423729533E-2
4.559137873E0,-1.536488533E-2,-3.074988723E-3,5.014419556E-3,1.645234513E-2
4.564155164E0,-9.093284607E-4,-1.256734133E-2,4.974365234E-3,1.354655882E-2
4.569172456E0,-8.720755577E-4,-7.736012340E-3,1.850128174E-4,7.787209541E-3
4.574189748E0,8.661851287E-3,1.803532243E-3,-4.564285278E-3,9.955556055E-3
4.579207039E0,1.331628859E-2,1.766592264E-3,9.718894958E-3,1.658014805E-2
4.584224331E0,3.687217832E-3,6.530970335E-3,1.401901245E-4,7.501253370E-3
4.589241623E0,3.634601831E-3,1.125468314E-2,4.886627197E-3,1.279677101E-2
4.594258914E0,8.278578520E-3,6.492674351E-3,4.842758179E-3,1.158196828E-2
4.599276206E0,8.187711239E-3,-2.977222204E-3,-9.445190430E-3,1.284967274E-2
4.604293498E0,8.147597313E-3,6.623923779E-3,9.626388550E-3,1.424524709E-2
4.609310789E0,1.285710931E-2,6.648987532E-3,-1.419734955E-2,2.027508395E-2
4.614328081E0,3.231078386E-3,-2.873778343E-3,-1.408004761E-2,1.472909400E-2
4.619345373E0,7.930770516E-3,6.625264883E-3,-1.396274567E-2,1.737093902E-2
4.624362664E0,3.043532372E-3,1.129758358E-2,9.895324707E-3,1.532370501E-2
4.629379956E0,-1.752212644E-3,1.123307645E-2,9.812355042E-3,1.501780834E-2
4.634397248E0,7.736727595E-3,1.591666043E-2,9.729385376E-3,2.019549388E-2
4.639414539E0,-1.898959279E-3,1.111578941E-2,4.897117615E-3,1.229424994E-2
4.644431831E0,-6.601974368E-3,1.105280221E-2,4.856109619E-3,1.375980751E-2
4.649449123E0,-2.076354623E-2,-3.256112337E-3,9.564399719E-3,2.309122910E-2
4.654466414E0,-1.106461883E-2,-3.148704767E-3,4.734992981E-3,1.244026889E-2
4.659483706E0,-6.246566772E-3,-3.093764186E-3,9.443283081E-3,1.173740042E-2
4.664500998E0,8.028328419E-3,6.457716227E-3,2.360916138E-2,2.575943821E-2
4.669518289E0,-6.306722760E-3,1.123265922E-2,-5.080223083E-3,1.384760094E-2
4.674535581E0,8.021011949E-3,6.471768022E-3,-2.899169922E-4,1.031040571E-2
4.679552873E0,-6.312429905E-3,1.699924469E-3,9.208679199E-3,1.129319650E-2
4.684570164E0,-1.585543156E-3,1.714468002E-3,4.381179810E-3,4.964683691E-3
4.689587456E0,-6.343498826E-3,-7.819667459E-3,-4.034042358E-4,1.007719760E-2
4.694604748E0,-6.313294172E-3,1.771196723E-3,1.384449005E-2,1.531877038E-2
4.699622039E0,-1.535609365E-3,1.133276522E-2,-5.267143250E-3,1.259096746E-2
4.704639331E0,-6.241649389E-3,1.770973206E-3,-1.471996307E-2,1.608638698E-2
4.709656571E0,-1.463785768E-3,-7.712066174E-3,-3.528594971E-4,7.857680527E-3
4.714673810E0,-1.525044441E-3,1.137585938E-2,-3.519058228E-4,1.148302116E-2
4.719691050E0,-1.585796475E-3,1.865267754E-3,4.396438599E-3,5.032161226E-3
4.724708289E0,-1.595228910E-3,-2.818509936E-3,4.358291626E-3,5.429867350E-3
4.729725529E0,-6.352335215E-3,6.731644273E-3,4.321098328E-3,1.021465066E-2
4.734742768E0,-6.320506334E-3,-7.539346814E-3,4.283905029E-3,1.073044235E-2
4.739760008E0,3.310412169E-3,2.050131559E-3,-9.996414185E-3,1.072800842E-2
4.744777248E0,-1.435995102E-3,6.811216474E-3,-5.164146423E-3,8.667361771E-3
4.749794487E0,8.101865649E-3,6.783172488E-3,-9.869575500E-3,1.445891339E-2
4.754811727E0,-1.433730125E-3,1.150384545E-2,-1.453590393E-2,1.859264762E-2
4.759828966E0,-1.094067097E-2,1.148919761E-2,4.577636719E-3,1.651225911E-2
4.764846206E0,-2.036681771E-2,1.617348194E-2,-1.445579529E-2,2.975497940E-2
4.769863446E0,-1.552127302E-2,1.772239804E-3,-9.059906006E-5,1.562238644E-2
4.774880685E0,-1.169085503E-3,6.534680724E-3,4.657745361E-3,8.109463911E-3
4.779897925E0,-1.062744856E-2,6.560489535E-3,9.366035461E-3,1.561106358E-2
4.784915164E0,3.736287355E-3,6.587028503E-3,-4.958152771E-3,9.051633367E-3
4.789932404E0,8.482545614E-3,1.130932570E-2,-4.917144775E-3,1.496772329E-2
4.794949643E0,1.313848794E-2,1.599322259E-2,-4.877090454E-3,2.126473714E-2
4.799966883E0,8.310943842E-3,1.645028591E-3,-8.773803711E-5,8.472638584E-3
4.804984123E0,3.522098064E-3,-3.140032291E-3,-8.583068848E-5,4.719358481E-3
4.810001362E0,3.522425890E-3,1.664265990E-3,-1.433086395E-2,1.485095711E-2
4.815018602E0,8.219689131E-3,1.731604338E-3,-9.465217590E-3,1.265512098E-2
4.820035841E0,8.077755570E-3,-7.750168443E-3,-9.387969971E-3,1.460990165E-2
4.825053081E0,3.188505769E-3,-2.804324031E-3,1.831054688E-4,4.250215279E-3
4.830070321E0,-1.608446240E-3,1.997187734E-3,-9.316444397E-3,9.662918522E-3
4.835087560E0,1.262935996E-2,-1.228591800E-2,1.450347900E-2,2.282094251E-2
4.840104800E0,-1.794829965E-3,-1.220545173E-2,9.633064270E-3,1.565216898E-2
4.845122039E0,2.998292446E-3,-7.377147675E-3,5.626678467E-5,7.963368091E-3
4.850139279E0,-1.124328375E-2,2.158463001E-3,-4.692077637E-3,1.237279211E-2
4.855156518E0,-1.623675227E-3,1.161462069E-2,-4.652023315E-3,1.261653898E-2
4.860173810E0,3.168806434E-3,1.154841483E-2,-4.612922668E-3,1.283301503E-2
4.865191102E0,-1.577198505E-3,1.148086786E-2,-4.574775696E-3,1.245899092E-2
4.870208393E0,-6.282895803E-3,1.141484082E-2,2.117156982E-4,1.303143101E-2
4.875225685E0,3.244578838E-3,1.134936512E-2,-4.539489746E-3,1.264683152E-2
4.880242977E0,3.196433187E-3,6.536886096E-3,2.460479736E-4,7.280700828E-3
4.885260268E0,-6.349086761E-3,6.512060761E-3,-9.253501892E-3,1.297478845E-2
4.890277560E0,-1.517996192E-3,1.738920808E-3,-4.427909851E-3,4.993450076E-3
4.895294852E0,3.221258521E-3,6.451025605E-3,3.576278687E-4,7.219427644E-3
4.900312143E0,3.224089742E-3,-3.070101142E-3,9.851455688E-3,1.081071019E-2
4.905329435E0,-6.320104003E-3,1.787081361E-3,-1.872348785E-2,1.984203548E-2
4.910346727E0,-6.288543344E-3,2.084834874E-2,1.467037201E-2,2.625679412E-2
4.915364018E0,-6.257236004E-3,-3.037288785E-3,-4.446983337E-3,8.255530654E-3
4.920381310E0,7.966205478E-3,1.765221357E-3,3.366470337E-4,8.166380311E-3
4.925398602E0,1.257412136E-2,-7.769346237E-3,5.081176758E-3,1.562976731E-2
4.930415893E0,1.244668663E-2,-2.978965640E-3,-9.206771851E-3,1.576575061E-2
4.935433185E0,1.701802015E-2,-2.924501896E-3,5.113601685E-3,1.800873798E-2
4.940450477E0,7.356539369E-3,-7.568359375E-3,-4.427909851E-3,1.144574684E-2
4.945467768E0,2.524852753E-3,-1.222415268E-2,5.105018616E-3,1.348577048E-2
4.950485060E0,2.585038543E-3,-1.204107702E-2,-4.434585571E-3,1.308951906E-2
4.955502352E0,-2.154543996E-3,-2.361565828E-3,9.846687317E-3,1.035259891E-2
4.960519643E0,7.339298725E-3,-1.180830598E-2,5.015373230E-3,1.478023560E-2
4.965536935E0,1.675325632E-2,-6.931751966E-3,4.972457886E-3,1.880016277E-2
4.970554227E0,1.659254730E-2,2.653598785E-3,4.930496216E-3,1.751182473E-2
4.975571518E0,1.173622906E-2,-2.137973905E-3,1.420974731E-4,1.193022199E-2
4.980588810E0,2.171099186E-3,-2.142071724E-3,9.638786316E-3,1.010981427E-2
4.985606102E0,-1.216594875E-2,2.653911710E-3,5.912780762E-5,1.245219067E-2
4.990623393E0,2.210617065E-3,2.661436796E-3,9.555816650E-3,1.016285912E-2
4.995640685E0,6.969600916E-3,2.667948604E-3,9.476661682E-3,1.206235480E-2
5.000657977E0,6.992772222E-3,7.423862815E-3,-9.594917297E-3,1.400267976E-2
5.005675268E0,-7.280543447E-3,1.214107871E-2,-4.766464233E-3,1.493757967E-2
5.010692560E0,-1.668640971E-2,1.681898534E-2,-4.726409912E-3,2.415892149E-2
5.015709852E0,-1.181995869E-2,1.190936565E-2,-9.435653687E-3,1.925034997E-2
5.020727143E0,-7.045641541E-3,2.128614485E-2,4.887580872E-3,2.294840897E-2
5.025744435E0,-2.208739519E-3,6.892919540E-3,9.594917297E-3,1.201887299E-2
5.030761727E0,-1.170843840E-2,1.156300306E-2,1.426315308E-2,2.177677904E-2
5.035779018E0,-2.186536789E-3,6.748735905E-3,-4.851341248E-3,8.594294115E-3
5.040796310E0,-6.887152791E-3,1.973628998E-3,-6.198883057E-5,7.164630319E-3
5.045813602E0,-1.154780388E-2,1.623326540E-2,4.687309265E-3,2.046561868E-2
5.050830893E0,-6.777301431E-3,1.932755113E-3,9.393692017E-3,1.174345804E-2
5.055848185E0,-1.994967461E-3,-7.500067353E-3,-1.831054688E-4,7.763017009E-3
5.060865477E0,2.747505903E-3,2.088114619E-3,4.566192627E-3,5.723558898E-3
5.065882768E0,1.219972968E-2,-1.214513183E-2,4.527091980E-3,1.779978071E-2
5.070900060E0,1.687701046E-2,-7.264807820E-3,9.238243103E-3,2.056589533E-2
5.075917352E0,1.681761444E-2,-7.174611092E-3,-5.083084106E-3,1.897748518E-2
5.080934643E0,2.461642027E-3,-1.658217609E-2,4.456520081E-3,1.734614702E-2
5.085951935E0,1.191624999E-2,-1.166583598E-2,4.418373108E-3,1.725139889E-2
5.090969227E0,2.297282219E-3,-6.842970848E-3,-9.863853455E-3,1.222290312E-2
5.095986518E0,2.205461264E-3,-2.058416605E-3,4.463195801E-3,5.387137929E-3
5.101003810E0,1.171454787E-2,-1.630772650E-2,4.426956177E-3,2.056138411E-2
5.106021102E0,6.898865104E-3,-6.695792079E-3,-5.105972290E-3,1.088572112E-2
5.111038393E0,2.173349261E-3,-6.611287594E-3,2.817726135E-2,2.902396644E-2
5.116055685E0,-2.615913749E-3,2.969503403E-3,-5.493164062E-4,3.995335244E-3
5.121072977E0,2.131730318E-3,-1.775026321E-3,-5.293846130E-3,5.976604340E-3
5.126090268E0,2.091318369E-3,3.016978502E-3,-5.025863647E-4,3.705180813E-3
5.131107560E0,-1.689042151E-2,2.969920635E-3,4.251480103E-3,1.766866861E-2
5.136124852E0,-7.222995162E-3,7.671773434E-3,-5.311965942E-4,1.055035244E-2
5.141142143E0,-2.385392785E-3,2.888038754E-3,1.371860504E-2,1.422079431E-2
5.146159435E0,-2.336606383E-3,1.238968968E-2,-6.408691406E-4,1.262437536E-2
5.151176727E0,-7.088303566E-3,1.231515408E-2,-6.361007690E-4,1.422363145E-2
5.156194018E0,-2.604588866E-2,1.698973775E-2,1.361370087E-2,3.394661038E-2
5.161211310E0,-1.155366004E-2,3.587181866E-2,-1.024246216E-2,3.905358454E-2
5.166228602E0,-6.730765104E-3,7.111549377E-3,8.835792542E-3,1.318895611E-2
5.171245893E0,-1.624512672E-2,1.183043420E-2,-5.485534668E-3,2.083157234E-2
5.176263185E0,2.863138914E-3,2.595636249E-2,-1.493644714E-2,3.008367948E-2
5.181280477E0,-1.879543066E-3,-7.521331310E-3,-5.313873291E-3,9.398955057E-3
5.186297768E0,-6.635040045E-3,6.867110729E-3,8.974075317E-3,1.310400679E-2
5.191315060E0,-1.135089993E-2,1.158709824E-2,1.364707947E-2,2.119779595E-2
5.196332352E0,-1.730397344E-3,6.770759821E-3,8.785247803E-3,1.122577581E-2
5.201349643E0,-1.737862825E-3,1.995489001E-3,-5.534172058E-3,6.134264742E-3
5.206366935E0,-1.745268703E-3,2.060070634E-3,-5.490303040E-3,6.118274375E-3
5.211384227E0,2.995878458E-3,2.124115825E-3,-1.494312286E-2,1.538778986E-2
5.216401518E0,2.949029207E-3,-2.612426877E-3,8.922576904E-3,9.753662187E-3
5.221418810E0,-1.845136285E-3,-1.205706596E-2,1.834392548E-2,2.202900292E-2
5.226436102E0,1.244542003E-2,-3.097249568E-2,-5.550384521E-3,3.383771175E-2
5.231453393E0,7.622107863E-3,-6.943166256E-3,-7.553100586E-4,1.033801621E-2
5.236470685E0,2.838999033E-3,2.640396357E-3,3.999710083E-3,5.570393988E-3
5.241487977E0,7.541954517E-3,-2.100437880E-3,3.965377808E-3,8.775940883E-3
5.246505268E0,-2.041310072E-3,-1.630066335E-2,-5.565643311E-3,1.734517103E-2
5.251522560E0,7.450044155E-3,-1.942187548E-3,8.726119995E-3,1.163702799E-2
5.256539852E0,7.365301251E-3,-6.645783782E-3,2.289772034E-2,2.495435235E-2
5.261557143E0,7.282048464E-3,-1.812249422E-3,-5.784988403E-3,9.475155335E-3
5.266574435E0,2.451762557E-3,-1.766547561E-3,-1.048660278E-2,1.091332524E-2
5.271591727E0,7.158726454E-3,3.078833222E-3,-9.040832520E-4,7.844994900E-3
5.276609018E0,-7.168307900E-3,-1.665666699E-3,3.850936890E-3,8.305949593E-3
5.281626310E0,-7.130444050E-3,3.126367927E-3,-5.679130554E-3,9.636904722E-3
5.286643602E0,-1.184217632E-2,1.262603700E-2,-1.038169861E-2,2.018498492E-2
5.291660893E0,-1.176615059E-2,7.852599025E-3,-8.001327515E-4,1.416847993E-2
5.296678185E0,-2.113540471E-2,1.256531477E-2,-1.029014587E-2,2.665482263E-2
5.301695477E0,-2.092881501E-2,1.723970473E-2,-1.495265961E-2,3.096457243E-2
5.306712768E0,-1.597622037E-2,2.187418938E-2,-5.331039429E-3,2.760687885E-2
5.311730060E0,-6.367966533E-3,1.222456992E-2,4.209518433E-3,1.441218765E-2
5.316747352E0,-1.103448868E-2,1.215140522E-2,-1.481914520E-2,2.211387921E-2
5.321764643E0,-1.467406750E-3,1.202823222E-2,-4.501342773E-4,1.212576899E-2
5.326781935E0,-1.102486253E-2,1.665551960E-2,4.301071167E-3,2.043167003E-2
5.331799227E0,-1.570259035E-2,1.179882884E-2,1.376152039E-2,2.398255927E-2
5.336816518E0,3.401160240E-3,1.647959650E-2,8.897781372E-3,1.903458707E-2
5.341833810E0,-1.084300876E-2,1.162342727E-2,1.357173920E-2,2.090136372E-2
5.346851102E0,-1.072219014E-2,2.060160041E-3,3.961563110E-3,1.161480104E-2
5.351868393E0,-1.156941056E-3,2.073600888E-3,3.927230835E-3,4.589278296E-3
5.356885685E0,3.578543663E-3,2.085030079E-3,-1.035213470E-2,1.114988870E-2
5.361902977E0,1.777157187E-2,-2.652123570E-3,-5.517959595E-3,1.879655299E-2
5.366920268E0,8.103817701E-3,-1.684680581E-2,1.352119446E-2,2.307183189E-2
5.371937560E0,2.225990593E-2,-1.667675376E-2,3.911018372E-3,2.808760568E-2
5.376954852E0,1.250396669E-2,-1.175962389E-2,-5.620002747E-3,1.806162694E-2
5.381972143E0,1.237788796E-2,-2.112896740E-2,3.922462463E-3,2.479982028E-2
5.386989435E0,2.180141211E-2,-6.729304790E-3,-5.606651306E-3,2.349509846E-2
5.392006727E0,7.351577282E-3,-6.644517183E-3,-5.560874939E-3,1.136303776E-2
5.397024018E0,2.519950271E-3,-6.611064076E-3,-5.514144897E-3,8.970067533E-3
5.402041310E0,7.224798203E-3,-6.578832865E-3,-1.021671295E-2,1.413718411E-2
5.407058602E0,2.444997430E-3,-1.129537821E-2,-6.332397461E-4,1.157430663E-2
5.412075893E0,-7.094249129E-3,-1.122316718E-2,4.120826721E-3,1.390212448E-2
5.417093185E0,-2.309277654E-3,7.841512561E-3,-5.410194397E-3,9.802667287E-3
5.422110477E0,2.435803413E-3,1.255337894E-2,-6.179809570E-4,1.280243577E-2
5.427127768E0,2.444401383E-3,2.980470657E-3,8.884429932E-3,9.684595948E-3
5.432145060E0,-1.179102063E-2,7.683172822E-3,1.830863953E-2,2.309254411E-2
5.437162352E0,-2.110849321E-2,7.648810744E-3,1.815700531E-2,2.887472308E-2
5.442179643E0,-2.090369165E-2,1.711077988E-2,-5.736351013E-3,2.761609740E-2
5.447196935E0,-1.595130563E-2,7.500857115E-3,-5.688667297E-3,1.852209341E-2
5.452214227E0,-2.048484981E-2,7.468953729E-3,-1.513767242E-2,2.654361445E-2
5.457231518E0,-2.028292418E-2,1.218675077E-2,3.982543945E-3,2.399530295E-2
5.462248810E0,-1.063956320E-2,1.686240733E-2,8.696556091E-3,2.175249811E-2
5.467266102E0,-1.047042012E-2,2.624759078E-2,-8.716583252E-4,2.827234528E-2
5.472283393E0,-1.035426557E-2,2.130907774E-2,3.884315491E-3,2.400782198E-2
5.477300685E0,-1.029063761E-2,1.641172171E-2,3.850936890E-3,1.975022903E-2
5.482317977E0,-5.479037762E-3,6.806671619E-3,8.566856384E-3,1.223689755E-2
5.487335268E0,-7.075220346E-4,1.978576183E-3,-1.001358032E-3,2.327674602E-3
5.492352560E0,-1.022128761E-2,1.148781180E-2,-1.998806000E-2,2.521838779E-2
5.497369852E0,-7.125586271E-4,6.673246622E-3,-8.296966553E-4,6.762274530E-3
5.502387143E0,4.019990563E-3,1.950338483E-3,-8.249282837E-4,4.543638520E-3
5.507404435E0,-8.362233639E-4,-7.534191012E-3,-8.201599121E-4,7.624694486E-3
5.512421727E0,-9.027123451E-4,-2.744823694E-3,-8.144378662E-4,3.002041926E-3
5.517439018E0,8.579909801E-3,2.056196332E-3,1.343727112E-2,1.607491993E-2
5.522456310E0,8.486524224E-3,-7.428273559E-3,1.807308197E-2,2.130344182E-2
5.527473602E0,-5.799248815E-3,-7.387340069E-3,-1.070976257E-3,9.452569505E-3
5.532490893E0,3.775760531E-3,-1.209619641E-2,-5.809783936E-3,1.394015512E-2
5.537508185E0,1.327019930E-2,-1.196669042E-2,3.735542297E-3,1.825524980E-2
5.542525477E0,1.313772798E-2,-1.663738489E-2,-5.792617798E-3,2.197628024E-2
5.547542768E0,3.509357572E-3,-1.646907628E-2,3.751754761E-3,1.725171666E-2
5.552560060E0,8.205950260E-3,-1.155462861E-2,-1.029014587E-3,1.420936075E-2
5.557577352E0,8.116468787E-3,-1.982301474E-3,3.727912903E-3,9.148984606E-3
5.562594643E0,3.330022097E-3,-1.936122775E-3,-5.800247192E-3,6.962792978E-3
5.567611935E0,-1.468092203E-3,-1.890331507E-3,3.744125366E-3,4.443773473E-3
5.572629227E0,3.321543336E-3,2.851054072E-3,1.321125031E-2,1.391755345E-2
5.577646466E0,-6.174236536E-3,-1.944065094E-3,-5.891799927E-3,8.752936208E-3
5.582663706E0,-6.093099713E-3,-1.898214221E-3,-5.843162537E-3,8.652839405E-3
5.587680946E0,-5.960300565E-3,-1.851797104E-3,-1.045227051E-3,6.328256863E-3
5.592698185E0,8.364558220E-3,7.690295577E-3,-5.784988403E-3,1.275039494E-2
5.597715425E0,-5.920961499E-3,-1.841142774E-3,-1.048564911E-2,1.218180730E-2
5.602732664E0,-1.058965921E-2,7.701814175E-3,-9.012222290E-4,1.312520573E-2
5.607749904E0,-1.047173142E-2,1.241578162E-2,-8.935928345E-4,1.626675445E-2
5.612767143E0,-1.515483856E-2,1.239353418E-2,8.608818054E-3,2.138645762E-2
5.617784383E0,-1.974813640E-2,1.706746221E-2,3.788948059E-3,2.637505042E-2
5.622801623E0,-1.955465972E-2,2.708449960E-3,-9.908676147E-4,1.976618923E-2
5.627818862E0,-1.941280067E-2,1.691041887E-2,-9.822845459E-4,2.576400549E-2
5.632836102E0,-9.724363685E-3,1.205065846E-2,-5.722999573E-3,1.650861419E-2
5.637853341E0,-9.717553854E-3,7.178872824E-3,-1.042461395E-2,1.595743225E-2
5.642870581E0,-4.962310195E-3,7.096171379E-3,-8.420944214E-4,8.699959410E-3
5.647887821E0,-4.994407296E-3,2.318188548E-3,1.340866089E-2,1.449518159E-2
5.652905060E0,-9.774744511E-3,7.077038288E-3,3.798484802E-3,1.265142632E-2
5.657922300E0,-2.697408199E-4,-2.449288964E-3,-9.832382202E-4,2.653023546E-3
5.662939539E0,9.206846356E-3,-2.400174737E-3,-9.756088257E-4,9.564448295E-3
5.667956779E0,-5.138024688E-3,7.093951106E-3,-1.521301270E-2,1.755446368E-2
5.672974018E0,9.179189801E-3,2.366572618E-3,-8.420944214E-4,9.516686103E-3
5.677991258E0,9.079277515E-3,-2.373889089E-3,-8.363723755E-4,9.421685006E-3
5.683008498E0,4.233241081E-3,-1.656995714E-2,-1.032733917E-2,1.997843197E-2
5.688025737E0,4.175305367E-3,-2.115166187E-2,-5.494117737E-3,2.224884951E-2
5.693042977E0,1.366721094E-2,-6.648689508E-3,-5.449295044E-3,1.614597608E-2
5.698060216E0,8.835256100E-3,-1.814186573E-3,8.841514587E-3,1.263033663E-2
5.703077456E0,3.992035985E-3,7.728546858E-3,4.018783569E-3,9.582140117E-3
5.708094696E0,3.938436508E-3,2.947196364E-3,8.732795715E-3,1.002292221E-2
5.713111935E0,-8.647441864E-4,2.952292562E-3,-8.382797241E-4,3.188499141E-3
5.718129175E0,-1.037564874E-2,-1.128721237E-2,-1.032924652E-2,1.848644324E-2
5.723146414E0,-8.140504360E-4,-6.414979696E-3,4.001617432E-3,7.604445061E-3
5.728163706E0,-1.032614708E-2,3.165125847E-3,3.967285156E-3,1.150594136E-2
5.733180998E0,-1.021119952E-2,1.266446710E-2,-1.505947113E-2,2.216855866E-2
5.738198289E0,-6.509721279E-4,7.891654968E-3,-5.438804626E-3,9.606382181E-3
5.743215581E0,-7.189959288E-4,1.735253632E-2,-1.964092255E-2,2.621818663E-2
5.748232873E0,-7.872283459E-4,7.688075304E-3,-4.844665527E-4,7.743444853E-3
5.753250164E0,-1.029954851E-2,1.240216196E-2,-4.816055298E-4,1.612843032E-2
5.758267456E0,-1.018403471E-2,1.707696915E-2,-9.974479675E-3,2.224472259E-2
5.763284748E0,-2.431575954E-2,1.696337759E-2,-5.143165588E-3,3.009093707E-2
5.768302039E0,-2.408422530E-2,7.405281067E-3,-3.528594971E-4,2.519945646E-2
5.773319331E0,-4.860624671E-3,1.206919551E-2,4.399299622E-3,1.373480941E-2
5.778336623E0,-4.791215062E-3,1.199731231E-2,4.363059998E-3,1.363552481E-2
5.783353914E0,-4.720836878E-3,7.127866149E-3,9.076118469E-3,1.246870896E-2
5.788371206E0,-7.212162018E-6,7.045596838E-3,-5.246162415E-3,8.784230581E-3
5.793388498E0,4.720240831E-3,2.268970013E-3,1.379013062E-2,1.475115591E-2
5.798405789E0,-3.792345524E-5,1.172515750E-2,-5.693435669E-4,1.173903355E-2
5.803423081E0,-5.948543549E-5,2.160102129E-3,1.842880249E-2,1.855506241E-2
5.808440373E0,1.891312003E-2,-7.325232029E-3,8.777618408E-3,2.210003888E-2
5.813457664E0,9.185045958E-3,-2.142848074E-2,1.344966888E-2,2.691539428E-2
5.818474956E0,1.383513212E-2,-1.172326505E-2,8.587837219E-3,2.006481429E-2
5.823492248E0,1.374951005E-2,-2.098903060E-3,-9.803771973E-4,1.394329804E-2
5.828509539E0,1.366382837E-2,-6.852760911E-3,-9.708404541E-4,1.531675779E-2
5.833526831E0,1.832892001E-2,-6.765052676E-3,-9.632110596E-4,1.956126330E-2
5.838544123E0,1.340734959E-2,-1.928627491E-3,-1.045322418E-2,1.710983702E-2
5.843561414E0,-9.201914072E-4,2.865597606E-3,1.812458038E-2,1.837277377E-2
5.848578706E0,3.864869475E-3,2.870425582E-3,3.727912903E-3,6.088833525E-3
5.853595998E0,-9.377002716E-4,2.876162529E-3,1.319313049E-2,1.353551938E-2
5.858613289E0,3.848299384E-3,2.881854773E-3,3.585815430E-3,5.997713512E-3
5.863630581E0,-9.533613920E-4,-6.608545780E-3,3.555297852E-3,7.564517042E-3
5.868647873E0,3.780424595E-3,1.241765916E-2,-5.970954895E-3,1.428783299E-2
5.873665164E0,-1.021444798E-3,7.595345378E-3,3.574371338E-3,8.456284725E-3
5.878682456E0,-9.832531214E-4,7.561713457E-3,-1.070117950E-2,1.314007382E-2
5.883699748E0,-1.049393415E-2,2.779841423E-3,-1.536178589E-2,1.881049277E-2
5.888717039E0,-5.628302693E-3,1.228334010E-2,-9.880065918E-4,1.354748656E-2
5.893734331E0,-1.030020416E-2,1.695913076E-2,8.517265320E-3,2.159282590E-2
5.898751623E0,-1.973401010E-2,1.684652269E-2,8.445739746E-3,2.728675505E-2
5.903768914E0,-1.479139924E-2,1.673579216E-2,8.375167847E-3,2.385404928E-2
5.908786206E0,-4.445165396E-4,1.187749207E-2,-1.192092896E-3,1.194543839E-2
5.913803498E0,-5.211204290E-3,-2.437323332E-3,-5.931854248E-3,8.263418784E-3
5.918820789E0,-1.468741894E-2,2.360180020E-3,-1.063156128E-2,1.828444202E-2
5.923838081E0,-9.838417172E-3,1.666723192E-2,-1.048088074E-3,1.938271294E-2
5.928855373E0,9.266465902E-3,-2.436965704E-3,3.708839417E-3,1.027432149E-2
5.933872664E0,9.218916297E-3,7.058426738E-3,-1.056671143E-2,1.569921005E-2
5.938889956E0,9.119436145E-3,2.279788256E-3,-2.472496033E-2,2.645156353E-2
5.943907248E0,1.851779222E-2,-1.190444827E-2,-7.781982422E-4,2.202793930E-2
5.948924539E0,4.095315933E-3,-1.652503014E-2,-5.520820618E-3,1.789770080E-2
5.953941831E0,8.735463023E-3,-1.635861397E-2,-7.286071777E-4,1.855918731E-2
5.958959123E0,-8.561909199E-4,-1.144413650E-2,1.352214813E-2,1.773555224E-2
5.963976414E0,8.678391576E-3,-1.606665552E-2,1.340961456E-2,2.265545547E-2
5.968993706E0,3.888025880E-3,-1.115366817E-2,-1.519298553E-2,1.924442434E-2
5.974010998E0,3.834530711E-3,-6.281614304E-3,3.926277161E-3,8.341340203E-3
5.979028289E0,3.832265735E-3,-6.251186132E-3,8.643150330E-3,1.133435646E-2
5.984045581E0,-9.192526340E-4,-6.170377135E-3,-1.042270660E-2,1.214707341E-2
5.989062873E0,-8.819103241E-4,-6.089299917E-3,-8.392333984E-4,6.209802895E-3
5.994080164E0,3.852069378E-3,-6.060466170E-3,1.341342926E-2,1.521472225E-2
5.999097456E0,-8.973181248E-4,3.467008471E-3,-9.431838989E-4,3.703366499E-3
6.004114748E0,-5.607903004E-3,-1.279771328E-3,-9.355545044E-4,5.827662737E-3
6.009132039E0,3.966271877E-3,-6.038576365E-3,8.569717407E-3,1.120873648E-2
6.014149331E0,-1.508264244E-2,8.286908269E-3,-1.049709320E-2,2.015807325E-2
6.019166623E0,-1.023033261E-2,1.299600303E-2,-5.661964417E-3,1.748180887E-2
6.024183914E0,4.078552127E-3,3.420352936E-3,-1.036453247E-2,1.165147780E-2
6.029201206E0,-1.017202437E-2,3.420561552E-3,-7.810592651E-4,1.076012893E-2
6.034218498E0,-1.015993953E-2,1.291966438E-2,-1.027297974E-2,1.938236858E-2
6.039235789E0,-1.014795899E-2,2.228802443E-2,-6.914138794E-4,2.449928892E-2
6.044253081E0,-5.336761475E-3,2.208037674E-2,-5.434036255E-3,2.335707195E-2
6.049270373E0,-1.486350596E-2,1.712502539E-2,8.855819702E-3,2.434370240E-2
6.054287664E0,-1.001301408E-2,2.176046371E-2,4.032135010E-3,2.429066374E-2
6.059304956E0,-1.469917595E-2,2.615734935E-3,-1.024818420E-2,1.810892383E-2
6.064322248E0,-1.454778016E-2,1.211963594E-2,-1.016235352E-2,2.148946048E-2
6.069339539E0,-9.648382664E-3,-2.197206020E-3,8.915901184E-3,1.331962072E-2
6.074356831E0,-9.485945106E-3,-6.845235825E-3,4.093170166E-3,1.239332280E-2
6.079374123E0,-4.627943039E-3,-2.009078860E-3,-1.968383789E-2,2.032013112E-2
6.084391414E0,-4.558920860E-3,-1.961722970E-3,-5.254745483E-4,4.990815557E-3
6.089408706E0,-4.543587565E-3,-6.665170193E-3,4.226684570E-3,9.106785609E-3
6.094425998E0,-4.476040602E-3,-6.631538272E-3,8.940696716E-3,1.199784552E-2
6.099443289E0,-4.460602999E-3,-6.546616554E-3,-5.380630493E-3,9.576343348E-3
6.104460581E0,5.103260279E-3,-6.513983011E-3,-5.865097046E-4,8.295735879E-3
6.109477873E0,9.839683771E-3,-1.732155681E-3,8.915901184E-3,1.339078168E-2
6.114495164E0,9.735822678E-3,-6.436556578E-3,4.092216492E-3,1.236777020E-2
6.119512456E0,1.358240843E-4,-1.585026085E-2,-6.914138794E-4,1.586591537E-2
6.124529748E0,-4.635691643E-3,-1.099158823E-2,-5.434036255E-3,1.310852390E-2
6.129547039E0,9.627327323E-3,-6.120860577E-3,1.360416412E-2,1.775453877E-2
6.134564331E0,2.899765968E-5,-1.089088619E-2,8.743286133E-3,1.396629139E-2
6.139581623E0,4.755377769E-3,-1.325041056E-3,-1.032352448E-2,1.144309876E-2
6.144598914E0,1.419088244E-2,3.412589431E-3,-7.400512695E-4,1.461419129E-2
6.149616206E0,4.501402378E-3,-1.088422537E-2,-1.023197174E-2,1.560199445E-2
6.154633498E0,-2.556890249E-4,-5.964756012E-3,-5.398750305E-3,8.049235741E-3
6.159650789E0,-4.973143339E-3,-1.137852669E-3,-1.485061646E-2,1.570247345E-2
6.164668081E0,4.594221711E-3,8.345752954E-3,4.267692566E-3,1.043894944E-2
6.169685373E0,-4.962936044E-3,1.300278306E-2,8.980751038E-3,1.656372515E-2
6.174702664E0,-4.995018244E-3,8.124023676E-3,8.905410767E-3,1.304823010E-2
6.179719956E0,-2.783238888E-4,3.337472677E-3,4.080772400E-3,5.279099491E-3
6.184737248E0,-5.097955465E-3,3.339320421E-3,-7.038116455E-4,6.134782933E-3
6.189754539E0,4.367321730E-3,1.283720136E-2,-5.448341370E-3,1.461340691E-2
6.194771831E0,-5.188733339E-3,1.750741899E-2,-6.551742554E-4,1.827188897E-2
6.199789123E0,-9.865090251E-3,1.253858209E-2,8.849143982E-3,1.824399615E-2
6.204806414E0,-9.753972292E-3,-1.834288239E-3,1.352500916E-2,1.677588929E-2
6.209823706E0,-4.842162132E-3,2.960100770E-3,-8.325576782E-4,5.736016298E-3
6.214840998E0,-9.520620108E-3,7.713600993E-3,-8.258819580E-4,1.228103939E-2
6.219858289E0,-4.714652896E-3,1.717597246E-2,-1.031684875E-2,2.058347274E-2
6.224875581E0,5.127489567E-5,2.868548036E-3,-7.362365723E-4,2.961965773E-3
6.229892873E0,-4.771098495E-3,2.925857902E-3,1.351261139E-2,1.462582278E-2
6.234910164E0,4.692226648E-3,7.731199265E-3,-8.487701416E-4,9.083437881E-3
6.239927456E0,-9.615033865E-3,2.946957946E-3,3.906250000E-3,1.078852290E-2
6.244944748E0,-9.556785226E-3,7.648989558E-3,8.622169495E-3,1.497267484E-2
6.249962039E0,4.798039794E-3,1.236340404E-2,3.801345825E-3,1.379583906E-2
6.254979331E0,4.735410213E-3,2.178606391E-2,3.768920898E-3,2.261109142E-2
6.259996623E0,4.674062133E-3,2.640172839E-3,-1.011848450E-3,5.462710566E-3
6.265013914E0,-9.633049369E-3,-6.901696324E-3,-2.474594116E-2,2.743703075E-2
6.270031206E0,-4.774585366E-3,7.430970669E-3,-1.029396057E-2,1.356398226E-2
6.275048498E0,-4.808247089E-3,-1.159530878E-2,-5.461692810E-3,1.368943075E-2
6.280065789E0,-4.841625690E-3,-1.972019672E-3,8.827209473E-3,1.025913388E-2
6.285083081E0,9.370774031E-3,-1.147450507E-2,1.350116730E-2,2.004388163E-2
6.290100373E0,4.523083568E-3,-6.651341915E-3,-8.563995361E-4,8.089008246E-3
6.295117664E0,1.395975053E-2,-6.618782878E-3,-8.497238159E-4,1.547271638E-2
6.300134956E0,1.862160861E-2,-1.785472035E-3,8.654594421E-3,2.061199220E-2
6.305152248E0,8.998319507E-3,-6.541952491E-3,8.583068848E-3,1.405119095E-2
6.310169539E0,4.152968526E-3,-6.509348750E-3,3.763198853E-3,8.589553791E-3
6.315186831E0,4.095703363E-3,-6.529539824E-3,3.732681274E-3,8.564028599E-3
6.320204123E0,-5.406528711E-3,-6.497994065E-3,-1.046180725E-3,8.517568531E-3
6.325221414E0,-5.383342505E-3,-6.465762854E-3,-1.037597656E-3,8.477209134E-3
6.330238706E0,8.885145187E-3,3.166317940E-3,3.717422485E-3,1.013857013E-2
6.335255998E0,-7.077604532E-4,3.169596195E-3,3.685951233E-3,4.912586019E-3
6.340273289E0,4.128664732E-3,1.267078519E-2,1.790142059E-2,2.231715773E-2
6.345290581E0,-5.373835564E-3,3.045335412E-3,-1.073741913E-2,1.238726548E-2
6.350307873E0,-1.484638453E-2,-1.748546958E-3,-1.539611816E-2,2.145956674E-2
6.355325164E0,-1.949226856E-2,2.203911543E-2,3.725051880E-3,2.965716025E-2
6.360342456E0,-1.935248077E-2,2.663265169E-2,-5.804061890E-3,3.342908587E-2
6.365359748E0,-1.921308041E-2,7.446393371E-3,-1.050472260E-2,2.312877925E-2
6.370377039E0,-1.432636380E-2,7.465556264E-3,-1.041889191E-2,1.922322914E-2
6.375394331E0,-9.480357170E-3,2.167849243E-2,-1.033306122E-2,2.581872112E-2
6.380411623E0,1.245588064E-4,7.281050086E-3,3.998756409E-3,8.307782981E-3
6.385428914E0,2.555698156E-4,2.448990941E-3,8.716583252E-3,9.057687130E-3
6.390446206E0,-4.414588213E-3,1.670278609E-2,-5.600929260E-3,1.816155447E-2
6.395463498E0,-1.379431784E-2,2.134078741E-2,-5.553245544E-3,2.601059300E-2
6.400480789E0,-4.151925445E-3,1.164500415E-2,-5.505561829E-3,1.353350722E-2
6.405498081E0,-4.087656736E-3,6.725981832E-3,-7.095336914E-4,7.902607624E-3
6.410515373E0,6.730258465E-4,1.899510622E-3,-1.494884491E-2,1.508406671E-2
6.415532664E0,5.291670561E-3,6.662815809E-3,-5.817413330E-4,8.528382895E-3
6.420549956E0,-4.426017404E-3,6.688505411E-3,4.166603088E-3,9.038048240E-3
6.425567248E0,9.731337428E-3,-1.228003204E-2,2.787017822E-2,3.197256557E-2
6.430584539E0,1.907379925E-2,-1.214803755E-2,1.813888550E-2,2.898971889E-2
6.435601831E0,9.448304772E-3,-2.570763230E-3,8.491516113E-3,1.296090786E-2
6.440619123E0,4.702314734E-3,-7.371321321E-3,2.266883850E-2,2.429659196E-2
6.445636414E0,4.796728492E-3,-7.330864668E-3,1.773452759E-2,1.978038548E-2
6.450653706E0,4.890352488E-3,-1.203925908E-2,8.092880249E-3,1.530862558E-2
6.455670998E0,1.442708075E-2,-2.413228154E-3,-1.571655273E-2,2.147031343E-2
6.460688289E0,3.869831562E-5,-2.312853932E-3,-1.083850861E-2,1.108260167E-2
6.465705581E0,4.661843181E-3,-6.960839033E-3,-2.499771118E-2,2.636421109E-2
6.470722873E0,4.497200251E-3,-2.074077725E-3,-1.054763794E-2,1.165243642E-2
6.475740164E0,-5.213871598E-3,2.772912383E-3,3.781318665E-3,7.012265752E-3
6.480757456E0,-6.000548601E-4,-6.719440222E-3,8.494377136E-3,1.084736768E-2
6.485774748E0,1.362702250E-2,2.861291170E-3,1.791954041E-2,2.269344967E-2
6.490791987E0,1.359394193E-2,2.814590931E-3,-1.221656799E-3,1.393591133E-2
6.495809227E0,-5.804449320E-4,2.717643976E-3,8.290290833E-3,8.743650679E-3
6.500826466E0,9.054213762E-3,-6.927058101E-3,-1.551628113E-2,1.925403596E-2
6.505843706E0,9.163156152E-3,2.554178238E-3,-1.063346863E-2,1.426737229E-2
6.510860946E0,-3.297179937E-4,1.680709422E-2,-2.004051208E-2,2.615739388E-2
6.515878185E0,-9.898200631E-3,1.199878752E-2,-1.987648010E-2,2.523924997E-2
6.520895425E0,-1.468923688E-2,1.678007841E-2,-1.971530914E-2,2.976639256E-2
6.525912664E0,-5.245640874E-3,1.202547550E-2,-5.626678467E-4,1.313184695E-2
6.530929904E0,-1.007620990E-2,1.675403118E-2,4.186630249E-3,1.999388506E-2
6.535947143E0,-1.011647284E-2,1.669657230E-2,1.364517212E-2,2.381825501E-2
6.540964383E0,-1.005405188E-2,7.090106606E-3,2.302742004E-2,2.610776981E-2
6.545981623E0,-3.920197487E-4,6.905972958E-3,1.334190369E-2,1.502839100E-2
6.550998862E0,-2.559423447E-4,2.026423812E-3,8.485794067E-3,8.728149913E-3
6.556016102E0,-4.818707705E-3,6.735175848E-3,-5.826950073E-3,1.012600043E-2
6.561033341E0,5.120038986E-5,6.657138467E-3,-1.527309418E-2,1.666095795E-2
6.566050581E0,-4.719614983E-3,-2.814128995E-3,-9.021759033E-4,5.568483541E-3
6.571067821E0,9.439423680E-3,2.038076520E-3,-8.983612061E-4,9.698635377E-3
6.576085060E0,-1.588761806E-4,2.101346850E-3,-5.640983582E-3,6.021760207E-3
6.581102300E0,4.569053650E-3,-2.583444118E-3,8.649826050E-3,1.011780240E-2
6.586119539E0,1.875382662E-2,2.266839147E-3,-9.212493896E-4,1.891278068E-2
6.591136779E0,1.393029094E-2,-2.470895648E-3,3.835678101E-3,1.465847050E-2
6.596154018E0,1.389545202E-2,-7.220715284E-3,-9.431838989E-4,1.568795436E-2
6.601171258E0,1.386013627E-2,-7.131829858E-3,-5.682945251E-3,1.659102894E-2
6.606188498E0,9.025797248E-3,-1.179124415E-2,-5.635261536E-3,1.588252584E-2
6.611205737E0,4.180207849E-3,-6.914809346E-3,-1.508617401E-2,1.711377726E-2
6.616222977E0,-7.781535387E-4,-6.774067879E-3,-7.200241089E-4,6.856526327E-3
6.621240216E0,3.800258040E-3,-1.836329699E-3,-7.200241089E-4,4.281647189E-3
6.626257456E0,8.340507746E-3,7.705628872E-3,4.030227661E-3,1.204921245E-2
6.631274696E0,-1.350238919E-3,7.723569870E-3,3.993034363E-3,8.798920394E-3
6.636291987E0,3.491535783E-3,7.689803839E-3,-7.877349854E-4,8.482006343E-3
6.641309279E0,8.292198181E-3,7.603809237E-3,-7.791519165E-4,1.127765682E-2
6.646326571E0,8.303567767E-3,7.517591119E-3,-5.518913269E-3,1.248686580E-2
6.651343862E0,-1.180589199E-3,7.433980703E-3,-5.471229553E-3,9.305493688E-3
6.656361154E0,-1.068964601E-2,-2.146884799E-3,-1.492309570E-2,1.848178648E-2
6.661378446E0,-1.062245667E-2,7.346093655E-3,-1.004981995E-2,1.636461300E-2
6.666395737E0,-5.807325244E-3,1.201145351E-2,-5.217552185E-3,1.432560270E-2
6.671413029E0,3.716185689E-3,2.444013953E-3,-5.174636841E-3,6.823496663E-3
6.676430321E0,3.663331270E-3,7.201820612E-3,9.113311768E-3,1.217943626E-2
6.681447612E0,3.714829683E-3,2.423897386E-3,-4.587173462E-4,4.459333999E-3
6.686464904E0,-5.731895566E-3,-7.115200162E-3,-4.529953003E-4,9.148000047E-3
6.691482196E0,-8.543729782E-4,2.419173717E-3,9.049415588E-3,9.406076608E-3
6.696499487E0,-7.136762142E-4,-2.370446920E-3,-5.269050598E-3,5.821618894E-3
6.701516779E0,-5.749315023E-4,-7.069528103E-3,-9.971618652E-3,1.223690943E-2
6.706534071E0,-5.404651165E-4,-6.929397583E-3,-1.463794708E-2,1.620426327E-2
6.711551362E0,-6.601959467E-4,2.707496285E-3,-1.451969147E-2,1.478471627E-2
6.716568654E0,-5.527436733E-3,1.226410270E-2,9.340286255E-3,1.637686536E-2
6.721585946E0,3.889843822E-3,2.693608403E-3,1.400852203E-2,1.478597649E-2
6.726603237E0,3.783985972E-3,2.649247646E-3,9.141921997E-3,1.024264618E-2
6.731620529E0,-9.618550539E-4,-2.164781094E-3,9.066581726E-3,9.370930932E-3
6.736637821E0,-5.565032363E-3,1.200373471E-2,8.995056152E-3,1.599907083E-2
6.741655112E0,-1.018060744E-2,7.112696767E-3,-1.007175446E-2,1.598985494E-2
6.746672404E0,-1.481007040E-2,1.175844669E-2,-1.473522186E-2,2.397344400E-2
6.751689696E0,-5.093067884E-4,6.972581148E-3,-5.117416382E-3,8.663961663E-3
6.756706987E0,8.872970939E-3,-2.520963550E-3,-3.290176392E-4,9.230012086E-3
6.761724279E0,3.930807114E-3,-2.439334989E-3,9.167671204E-3,1.026877768E-2
6.766741571E0,8.526042104E-3,1.183459163E-2,1.383781433E-2,2.010562256E-2
6.771758862E0,8.438393474E-3,-2.552047372E-3,1.372241974E-2,1.631024934E-2
6.776776154E0,1.320312917E-2,-2.521738410E-3,-6.351470947E-4,1.345678997E-2
6.781793446E0,1.792891324E-2,-2.542287111E-3,-6.275177002E-4,1.811913166E-2
6.786810737E0,1.306599379E-2,-1.206062734E-2,-1.961517334E-2,2.647515724E-2
6.791828029E0,3.443509340E-3,-2.505630255E-3,-1.945209503E-2,1.991280846E-2
6.796845321E0,3.347426653E-3,-2.474755049E-3,-1.454257965E-2,1.512667514E-2
6.801862612E0,8.000642061E-3,-2.392575145E-3,-9.675025940E-3,1.278048576E-2
6.806879904E0,-1.682728529E-3,-1.180902123E-2,-9.596824646E-3,1.530959180E-2
6.811897196E0,3.012403846E-3,-1.170063019E-2,4.727363586E-3,1.297410075E-2
6.816914487E0,7.668405771E-3,-1.159313321E-2,2.368068695E-2,2.745869842E-2
6.821931779E0,1.233641803E-2,7.506534457E-3,9.238243103E-3,1.714294039E-2
6.826949071E0,1.232014596E-2,-6.895601749E-3,4.415512085E-3,1.479297357E-2
6.831966362E0,2.807006240E-3,-6.880655885E-3,-9.864807129E-3,1.235059226E-2
6.836983654E0,-1.879125834E-3,-6.815224886E-3,-9.780883789E-3,1.206830940E-2
6.842000946E0,2.920001745E-3,-2.052456141E-3,-2.394390106E-2,2.420845688E-2
6.847018237E0,-1.869425178E-3,2.670630813E-3,-4.750251770E-3,5.761242167E-3
6.852035529E0,-1.819655299E-3,-6.840512156E-3,-9.458541870E-3,1.181388024E-2
6.857052821E0,-1.126651466E-2,1.221953332E-2,1.182556152E-4,1.662123135E-2
6.862070112E0,3.107845783E-3,7.326692343E-3,-9.378433228E-3,1.230016812E-2
6.867087404E0,3.117695451E-3,1.677261293E-2,-9.299278259E-3,1.942980045E-2
6.872104696E0,3.179013729E-3,1.184277236E-2,2.775192261E-4,1.226517030E-2
6.877121987E0,3.290608525E-3,7.004633546E-3,9.775161743E-3,1.246782991E-2
6.882139279E0,-6.146520376E-3,6.904691458E-3,4.946708679E-3,1.048448395E-2
6.887156571E0,-6.060317159E-3,1.150156558E-2,-9.338378906E-3,1.600683527E-2
6.892173862E0,-2.027267218E-2,1.865252852E-3,-9.260177612E-3,2.236540397E-2
6.897191154E0,-1.067489386E-2,1.610425115E-2,-4.435539246E-3,1.982357869E-2
6.902208446E0,-5.905598402E-3,-3.014907241E-3,9.845733643E-3,1.187030872E-2
6.907225737E0,-1.067303121E-2,-3.032296896E-3,2.660751343E-4,1.109861323E-2
6.912243029E0,-2.014923096E-2,-3.049537539E-3,2.632141113E-4,2.038039423E-2
6.917260321E0,-5.804762244E-3,-3.016024828E-3,-4.487991333E-3,7.933078638E-3
6.922277612E0,-1.025259495E-3,1.765698195E-3,-9.199142456E-3,9.423007432E-3
6.927294904E0,-1.034095883E-3,-2.937853336E-3,-4.374504089E-3,5.369974167E-3
6.932312196E0,-1.042857766E-3,-2.905279398E-3,9.907722473E-3,1.037743539E-2
6.937329487E0,-1.051545143E-3,-2.872973680E-3,3.280639648E-4,3.076906063E-3
6.942346779E0,3.688335419E-3,-7.589429617E-3,3.252029419E-4,8.444466651E-3
6.947364071E0,3.640219569E-3,2.030462027E-3,5.069732666E-3,6.563243395E-3
6.952381362E0,8.340999484E-3,6.718590856E-3,9.776115417E-3,1.450117816E-2
6.957398654E0,3.506407142E-3,1.611708105E-2,1.974105835E-4,1.649527700E-2
6.962415946E0,-5.984842777E-3,6.443262100E-3,1.964569092E-4,8.796167624E-3
6.967433237E0,-5.899220705E-3,1.584498584E-2,1.955032349E-4,1.690865467E-2
6.972450529E0,3.681138158E-3,6.172493100E-3,1.945495605E-4,7.189457472E-3
6.977467821E0,-1.115411520E-3,6.077602506E-3,9.690284729E-3,1.149273741E-2
6.982485112E0,-1.070365310E-3,1.236870885E-3,4.861831665E-3,5.129613886E-3
6.987502404E0,-5.774214864E-3,1.236557961E-3,4.822731018E-3,7.624261758E-3
6.992519696E0,-1.988427341E-2,1.068168879E-2,9.532928467E-3,2.450223519E-2
6.997536987E0,-1.018659770E-2,1.104712486E-3,4.706382751E-3,1.127551334E-2
7.002554279E0,-5.370587111E-3,-3.644898534E-3,-4.829406738E-3,8.090220064E-3
7.007571571E0,-1.009091735E-2,1.538851857E-2,-9.537696838E-3,2.072681301E-2
7.012588862E0,-5.274921656E-3,5.720779300E-3,-4.709243774E-3,9.095553375E-3
7.017606154E0,-5.195990205E-3,1.043064892E-2,-4.669189453E-3,1.255380744E-2
7.022623446E0,-4.207789898E-4,9.073317051E-4,1.173019409E-4,1.007008206E-3
7.027640737E0,-4.338622093E-4,9.088069201E-4,1.163482666E-4,1.013757049E-3
7.032658029E0,-9.943842888E-3,5.658790469E-3,-4.632949829E-3,1.234366822E-2
7.037675321E0,-5.180627108E-3,-3.876328468E-3,-4.595756531E-3,7.936359223E-3
7.042692612E0,-4.563331604E-4,9.144544601E-4,9.687423706E-3,9.741182935E-3
7.047709904E0,4.176259041E-3,-8.529543877E-3,9.603500366E-3,1.350634953E-2
7.052727196E0,8.770242333E-3,-8.397847414E-3,9.520530701E-3,1.542988971E-2
7.057744487E0,8.682116866E-3,-1.306544244E-2,9.441375732E-3,1.830913748E-2
7.062761779E0,3.948569298E-3,-1.299813390E-2,2.835845947E-2,3.144431440E-2
7.067779071E0,2.299696207E-2,-3.382816911E-3,9.130477905E-3,2.497337265E-2
7.072796362E0,8.647128940E-3,-3.344640136E-3,9.056091309E-3,1.296041073E-2
7.077813654E0,-8.338242769E-4,-3.305837512E-3,-2.425670624E-2,2.449513466E-2
7.082830946E0,3.956601024E-3,6.176203489E-3,-9.808540344E-3,1.224776081E-2
7.087848237E0,-5.590751767E-3,6.132811308E-3,-1.922416687E-2,2.093887465E-2
7.092865529E0,-5.560755730E-3,1.342236996E-3,-9.567260742E-3,1.114702124E-2
7.097882821E0,-7.817298174E-4,-3.407448530E-3,1.425457001E-2,1.467700832E-2
7.102900112E0,-5.540326238E-3,6.178572774E-3,9.386062622E-3,1.252869298E-2
7.107917404E0,-1.495540142E-2,-3.359928727E-3,9.308815002E-3,1.793340987E-2
7.112934696E0,-5.502998829E-4,-3.374442458E-3,1.872920990E-2,1.903872357E-2
7.117951987E0,-5.208477378E-3,1.085570455E-2,-4.186630249E-4,1.204781459E-2
7.122969279E0,4.417687654E-3,6.024822593E-3,-9.910583496E-3,1.241104817E-2
7.127986571E0,-9.778872132E-3,1.547968388E-2,-3.290176392E-4,1.831270613E-2
7.133003862E0,-2.395947278E-2,5.862742662E-3,4.422187805E-3,2.505960559E-2
7.138021154E0,-1.433095336E-2,5.822926760E-3,-5.112648010E-3,1.629177307E-2
7.143038446E0,-2.377668023E-2,1.053194702E-2,-5.070686340E-3,2.649460871E-2
7.148055737E0,-1.889896393E-2,1.525233686E-2,4.467010498E-3,2.469329464E-2
7.153073029E0,-4.564136267E-3,2.463126183E-2,4.428863525E-3,2.543904934E-2
7.158090321E0,-9.291186929E-3,1.963499188E-2,-5.105018616E-3,2.231412727E-2
7.163107612E0,-1.867656410E-2,1.942789555E-2,-3.128051758E-4,2.695097436E-2
7.168124904E0,-1.843439043E-2,1.452654600E-2,9.188652039E-3,2.520473399E-2
7.173142196E0,-1.349729300E-2,1.441453397E-2,1.861000061E-2,2.713462420E-2
7.178159487E0,8.440911770E-4,1.430346072E-2,-5.388259888E-4,1.433847314E-2
7.183176779E0,-8.676543832E-3,4.696324468E-3,-5.282402039E-3,1.119114148E-2
7.188194071E0,-3.923892975E-3,-4.830777645E-3,-5.239486694E-3,8.135451404E-3
7.193211362E0,5.537658930E-3,1.859664917E-5,-5.197525024E-3,7.594753363E-3
7.198228654E0,5.423367023E-3,-9.469509125E-3,-4.062652588E-4,1.092014489E-2
7.203245946E0,-4.134640098E-3,-1.418066025E-2,1.859092712E-2,2.374466140E-2
7.208263237E0,6.825029850E-4,-1.885445416E-2,1.843738556E-2,2.637979223E-2
7.213280529E0,1.026035845E-2,-1.399135590E-2,-7.085800171E-4,1.736476550E-2
7.218297821E0,1.511226594E-2,-2.341522276E-2,-6.990432739E-4,2.787726494E-2
7.223315112E0,1.517601311E-2,-2.331417799E-2,-1.968288422E-2,3.407753219E-2
7.228332404E0,1.038679481E-2,-1.841486990E-2,-1.476860046E-2,2.578962000E-2
7.233349696E0,8.890032768E-4,-4.059389234E-3,-1.464366913E-2,1.522189257E-2
7.238366987E0,5.716621876E-3,-8.765012026E-3,-5.023002625E-3,1.160757325E-2
7.243384279E0,9.546875954E-4,-3.935396671E-3,-2.317428589E-4,4.056165692E-3
7.248401571E0,-8.462965488E-3,5.604401231E-3,1.401710510E-2,1.730636685E-2
7.253418862E0,5.991160870E-3,-8.678764105E-3,4.405975342E-3,1.142924204E-2
7.258436154E0,-8.166164160E-3,5.648106337E-3,-3.767013550E-4,9.936259165E-3
7.263453446E0,-1.270850003E-2,5.610078573E-3,-2.411365509E-2,2.782889355E-2
7.268470737E0,-1.261997223E-2,1.506839693E-2,-2.866077423E-2,3.475284542E-2
7.273488029E0,-1.278920472E-2,2.450042963E-2,-1.418209076E-2,3.106391005E-2
7.278505321E0,-2.250559628E-2,1.491144300E-2,-4.574775696E-3,2.738213959E-2
7.283522612E0,-1.309543848E-2,1.489935815E-2,9.702682495E-3,2.208219713E-2
7.288539904E0,-8.461430669E-3,1.483485103E-2,2.386283875E-2,2.934456827E-2
7.293557196E0,-3.711357713E-3,1.471930742E-2,4.265689850E-2,4.527740249E-2
7.298574487E0,-8.291602135E-3,9.753108025E-3,2.331161499E-2,2.659520964E-2
7.303591779E0,1.412600279E-3,9.629324079E-3,8.874893188E-3,1.317129648E-2
7.308609071E0,-3.209576011E-3,1.430661976E-2,8.803367615E-3,1.710204750E-2
7.313626362E0,-1.734176278E-2,2.359029651E-2,-1.975822449E-2,3.532175336E-2
7.318643654E0,-7.716849446E-3,4.408776760E-3,-1.959323883E-2,2.151469465E-2
7.323660946E0,-1.252156496E-2,-3.168135881E-4,-1.943302155E-2,2.311995429E-2
7.328678237E0,6.353124976E-3,-2.029687166E-4,-1.452827454E-2,1.585793663E-2
7.333695529E0,6.128102541E-3,9.458512068E-3,4.581451416E-3,1.216580406E-2
7.338712821E0,5.957305431E-3,-4.753634334E-3,1.878452301E-2,2.027177427E-2
7.343730112E0,2.008421719E-2,-4.705935717E-3,2.337551117E-2,3.117589026E-2
7.348747404E0,2.000339329E-2,-9.406164289E-3,1.368522644E-2,2.599802094E-2
7.353764696E0,1.042623818E-2,-4.673361778E-3,1.832294464E-2,2.159344931E-2
7.358781987E0,1.522517204E-2,-9.477958083E-3,8.677482605E-3,1.992325921E-2
7.363799279E0,1.998409629E-2,-9.494021535E-3,-1.513385773E-2,2.680548823E-2
7.368816571E0,1.025240123E-2,-1.415437460E-2,-1.975727081E-2,2.637816903E-2
7.373833862E0,1.004724205E-2,-1.877588034E-2,-5.349159241E-3,2.195664500E-2
7.378851154E0,9.792238474E-3,-1.381030679E-2,-5.598068237E-4,1.693888696E-2
7.383868446E0,4.843205214E-3,-4.136651754E-3,1.368713379E-2,1.509656106E-2
7.388885737E0,9.483978152E-3,-4.092186689E-3,1.832103729E-2,2.103217157E-2
7.393902977E0,9.492278099E-3,-1.354509592E-2,8.673667908E-3,1.867633481E-2
7.398920216E0,9.499728680E-3,-3.977730870E-3,3.854751587E-3,1.099664938E-2
7.403937456E0,-1.413224638E-2,7.614046335E-4,-9.222030640E-4,1.418275654E-2
7.408954696E0,-4.379376769E-3,-4.087522626E-3,3.837585449E-3,7.114340741E-3
7.413971935E0,-9.057179093E-3,6.515681744E-4,-1.518726349E-2,1.769491471E-2
7.418989175E0,-2.319301665E-2,1.489971578E-2,-2.455711365E-2,3.691841522E-2
7.424006414E0,-4.074677825E-3,5.286648870E-3,-1.960468292E-2,2.070978629E-2
7.429023654E0,5.387350917E-3,1.479923725E-2,-9.945869446E-3,1.862689701E-2
7.434040893E0,-4.222705960E-3,9.988024831E-3,9.129524231E-3,1.417533415E-2
7.439058133E0,5.451887846E-4,5.114749074E-3,1.380157471E-2,1.472892913E-2
7.444075373E0,-8.921384811E-3,9.829670191E-3,8.938789368E-3,1.600360829E-2
7.449092612E0,5.434215069E-3,1.450625062E-2,8.865356445E-3,1.784815244E-2
7.454109852E0,-8.821591735E-3,9.542778134E-3,-7.038116455E-4,1.301462432E-2
7.459127091E0,-3.965407610E-3,9.471341968E-3,-6.971359253E-4,1.029158757E-2
7.464144331E0,8.503198624E-4,4.652008414E-3,-1.018714905E-2,1.123130588E-2
7.469161571E0,8.266419172E-4,9.422346950E-3,-6.065368652E-4,9.477966336E-3
7.474178810E0,-3.944575787E-3,9.456962347E-3,1.364231110E-2,1.706184243E-2
7.479196050E0,-4.031434655E-3,-4.755169153E-3,4.028320312E-3,7.422362400E-3
7.484213289E0,6.825178862E-4,9.356439114E-5,-7.553100586E-4,1.022290685E-3
7.489230529E0,5.511879921E-3,-9.395167232E-3,1.349830627E-2,1.734515090E-2
7.494247768E0,7.524341345E-4,-1.405633986E-2,1.338672638E-2,1.942553192E-2
7.499265008E0,7.811337709E-4,-1.387858391E-2,3.778457642E-3,1.440492983E-2
7.504282248E0,1.035737991E-2,-9.057894349E-3,-5.747795105E-3,1.491167051E-2
7.509299487E0,1.510691643E-2,-1.372091472E-2,-9.498596191E-4,2.042999408E-2
7.514316727E0,5.519777536E-3,-1.834505796E-2,-5.689620972E-3,1.998451607E-2
7.519333966E0,5.456402898E-3,-1.343560219E-2,1.335144043E-2,1.971163870E-2
7.524351206E0,5.445912480E-3,-1.806308329E-2,-5.752563477E-3,1.972371484E-2
7.529368446E0,1.013243198E-2,-1.315501332E-2,1.328945160E-2,2.126805297E-2
7.534385685E0,1.003140211E-2,-8.287832141E-3,8.430480957E-3,1.550452189E-2
7.539402977E0,9.931206703E-3,-8.209720254E-3,-5.885124207E-3,1.416555894E-2
7.544420268E0,-4.362866282E-3,-8.133217692E-3,3.662109375E-3,9.929495320E-3
7.549437560E0,5.205467343E-3,1.440599561E-3,-1.061248779E-2,1.190785936E-2
7.554454852E0,4.485696554E-4,-3.259286284E-3,-5.775451660E-3,6.646804021E-3
7.559472143E0,5.227521062E-3,1.096989214E-2,-1.047515869E-2,1.604351769E-2
7.564489435E0,-4.278063774E-3,1.287385821E-3,-1.038551331E-2,1.130566577E-2
7.569506727E0,-4.207432270E-3,5.982652307E-3,-8.010864258E-4,7.357741120E-3
7.574524018E0,-4.188194871E-3,1.245856285E-3,-5.543708801E-3,7.058742199E-3
7.579541310E0,-1.841537654E-2,1.554158330E-2,8.747100830E-3,2.563549644E-2
7.584558602E0,-1.822617650E-2,1.062202454E-2,8.675575256E-3,2.280979003E-2
7.589575893E0,-8.594676852E-3,1.054158807E-2,3.854751587E-3,1.413692537E-2
7.594593185E0,-8.488073945E-3,1.041123271E-2,8.571624756E-3,1.593467655E-2
7.599610477E0,-8.382365108E-3,1.503044367E-2,-9.956359863E-4,1.723860704E-2
7.604627768E0,-8.328318596E-3,5.418196321E-3,3.761291504E-3,1.062379667E-2
7.609645060E0,1.222282648E-3,6.861090660E-4,8.477210999E-3,8.592312077E-3
7.614662352E0,1.196280122E-3,6.904006004E-4,8.406639099E-3,8.519349744E-3
7.619679643E0,1.170501113E-3,6.946474314E-4,8.337020874E-3,8.447397526E-3
7.624696935E0,1.064193249E-2,7.504373789E-4,8.266448975E-3,1.349622399E-2
7.629714227E0,-3.708079457E-3,-3.942742944E-3,-6.049156189E-3,8.117103288E-3
7.634731518E0,-3.692999482E-3,1.039719582E-2,-5.999565125E-3,1.255924790E-2
7.639748810E0,5.922883749E-3,-3.923982382E-3,3.549575806E-3,7.942145682E-3
7.644766102E0,1.160770655E-3,8.672177792E-4,-1.227378845E-3,1.898924437E-3
7.649783393E0,-3.562435508E-3,-8.679524064E-3,-1.215934753E-3,9.460633280E-3
7.654800685E0,-1.294396818E-2,-1.814769208E-2,1.304149628E-2,2.582567841E-2
7.659817977E0,-8.052632213E-3,-1.798741519E-2,8.185386658E-3,2.133992844E-2
7.664835268E0,6.242603064E-3,-8.332431316E-3,1.286602020E-2,1.655095105E-2
7.669852560E0,1.373916864E-3,1.243039966E-3,3.260612488E-3,3.750251952E-3
7.674869852E0,1.079051197E-2,1.189187169E-3,1.747798920E-2,2.057497074E-2
7.679887143E0,1.068399847E-2,-1.310874522E-2,7.835388184E-3,1.863814187E-2
7.684904435E0,1.532609761E-2,-3.442838788E-3,3.020286560E-3,1.599576624E-2
7.689921727E0,9.354948997E-4,-3.406062722E-3,7.743835449E-3,8.511368952E-3
7.694939018E0,5.659595132E-3,1.379862428E-3,-6.566047668E-3,8.777700118E-3
7.699956310E0,8.465647697E-4,-3.320470452E-3,-6.512641907E-3,7.359123626E-3
7.704973602E0,8.221268654E-4,-3.233149648E-3,-1.710891724E-3,3.749173204E-3
7.709990893E0,-4.002973437E-3,1.549407840E-3,-6.445884705E-3,7.744281156E-3
7.715008185E0,5.510017276E-3,1.104158163E-2,-1.644134521E-3,1.244909610E-2
7.720025477E0,-4.050284624E-3,-3.287851810E-3,3.118515015E-3,6.077821235E-3
7.725042768E0,-1.358325779E-2,6.243675947E-3,7.840156555E-3,1.688065273E-2
7.730060060E0,7.580518723E-4,1.099979877E-2,-1.723289490E-3,1.115974652E-2
7.735077352E0,-8.659511805E-3,1.470789313E-3,1.253795624E-2,1.530851765E-2
7.740094643E0,-2.274708450E-2,6.215125322E-3,-1.810073853E-3,2.365024320E-2
7.745111935E0,-1.767167449E-2,1.566840708E-2,-6.540298462E-3,2.450637802E-2
7.750129227E0,1.555353403E-3,1.554591954E-2,-1.123237610E-2,1.924216753E-2
7.755146518E0,1.576587558E-3,1.537288725E-2,-6.389617920E-3,1.672239540E-2
7.760163810E0,1.546859741E-3,1.008316875E-3,7.908821106E-3,8.121510282E-3
7.765181102E0,-1.278048754E-2,1.050500572E-2,3.093719482E-3,1.683054090E-2
7.770198393E0,6.302639842E-3,5.677044392E-3,3.067970276E-3,9.020229688E-3
7.775215685E0,1.578131318E-2,1.518638432E-2,-6.454467773E-3,2.283278933E-2
7.780232977E0,6.136968732E-3,1.032133400E-2,3.096580505E-3,1.240085205E-2
7.785250268E0,-3.426998854E-3,5.496829748E-3,-1.592350006E-2,1.719061699E-2
7.790267560E0,-8.162751794E-3,1.970651746E-2,3.203392029E-3,2.156940119E-2
7.795284852E0,6.134182215E-3,1.010592282E-2,7.924079895E-3,1.423196788E-2
7.800302143E0,6.066471338E-3,1.003074646E-2,-1.639366150E-3,1.183661567E-2
7.805319435E0,-3.445327282E-3,5.208671093E-3,7.872581482E-3,1.004878469E-2
7.810336727E0,-3.380849957E-3,5.072131753E-3,-6.436347961E-3,8.864718948E-3
7.815354018E0,1.098015904E-2,-1.400572062E-2,-6.381034851E-3,1.890612886E-2
7.820371310E0,1.562057436E-2,-9.131446481E-3,-1.579284668E-3,1.816259337E-2
7.825388602E0,1.072607934E-2,-1.379385591E-2,1.267910004E-2,2.158885862E-2
7.830405893E0,1.071542501E-3,-4.172861576E-3,3.075599670E-3,5.293419537E-3
7.835423185E0,-3.702491522E-3,-8.877545595E-3,-1.119518280E-2,1.475978920E-2
7.840440477E0,1.050648093E-2,-1.354207098E-2,-1.605987549E-3,1.721490703E-2
7.845457768E0,9.561330080E-4,-3.975704312E-3,7.905006409E-3,8.899974238E-3
7.850475060E0,9.823590517E-4,-3.986060619E-3,3.091812134E-3,5.139358991E-3
7.855492352E0,1.009151340E-3,-3.943800926E-3,-1.681327820E-3,4.404408633E-3
7.860509643E0,1.997891068E-2,-3.952503204E-3,-6.415367126E-3,2.135266000E-2
7.865526935E0,5.497962236E-3,5.533948541E-3,-1.111125946E-2,1.357616522E-2
7.870544227E0,1.013247669E-2,-3.948554397E-3,-1.576900482E-2,1.915514758E-2
7.875561518E0,5.232140422E-3,5.642935634E-3,-6.142616272E-3,9.846306446E-3
7.880578810E0,3.726482391E-4,-3.839522600E-3,-6.093025208E-3,7.211501694E-3
7.885596102E0,5.049869418E-3,-3.798484802E-3,-1.295089722E-3,6.450343039E-3
7.890613393E0,1.918971539E-4,-1.800234616E-2,8.212089539E-3,1.978786765E-2
7.895630685E0,-4.626378417E-3,-2.264335752E-2,3.394126892E-3,2.335904780E-2
7.900647977E0,1.913808286E-2,-1.294863224E-2,-6.131172180E-3,2.390657995E-2
7.905665268E0,9.515792131E-3,-8.135706186E-3,3.417968750E-3,1.297777043E-2
7.910682560E0,-7.709860802E-5,-3.361940384E-3,-1.358985901E-3,3.627041497E-3
7.915699852E0,-1.903471351E-2,6.173074245E-3,8.150100708E-3,2.160674213E-2
7.920717143E0,-4.647195339E-3,1.082760096E-2,-1.415252686E-3,1.186744737E-2
